AccX,AccY,AccZ,GyroX,GyroY,GyroZ,label
-3.217,7.441,3.665,-0.10699999999999998,-0.14600000000000005,-0.03199999999999999,0.0
-6.5569999999999995,7.911,-3.136,0.15600000000000003,0.30700000000000005,-0.29999999999999993,0.0
-0.364,5.99,4.651000000000001,-0.1439999999999999,-0.812,-0.5890000000000001,0.0
-1.8800000000000001,9.379999999999999,1.738,0.019,-0.11999999999999997,0.16500000000000004,0.0
-2.693,7.337000000000001,4.325,-0.018,-0.384,0.10600000000000005,0.0
-3.1529999999999996,7.915000000000001,3.343,-0.163,0.12499999999999997,0.015999999999999993,0.0
-2.167,8.85,2.59,-0.084,-0.024999999999999994,-0.020999999999999998,0.0
-3.3369999999999997,7.617000000000002,4.2219999999999995,-0.41200000000000003,0.503,0.35100000000000003,0.0
-3.443,6.9719999999999995,4.7010000000000005,-0.118,0.013000000000000006,0.137,0.0
-2.317,8.753,2.739,-0.064,-0.040999999999999995,-0.03300000000000001,0.0
-3.051,8.488,2.679,-0.10300000000000001,0.051000000000000004,-0.04,0.0
-2.744,7.8709999999999996,4.205,-0.229,0.06100000000000002,0.10700000000000003,0.0
-2.132,8.821,3.1979999999999995,-0.329,-0.04,0.039999999999999994,0.0
-2.4720000000000004,8.167,2.403,-0.279,0.08500000000000003,0.21000000000000005,0.0
-2.827,8.223,4.113,0.012999999999999956,0.04199999999999997,-0.07700000000000001,0.0
-3.122,8.244,4.76,-0.015999999999999983,0.10099999999999998,-0.186,0.0
-0.8709999999999999,6.5,5.219,0.32700000000000007,-0.40599999999999997,-0.16899999999999998,0.0
-4.508,4.9479999999999995,1.568,0.21000000000000002,-0.21300000000000008,-0.496,1.0
-5.279,4.877,-5.093,0.19599999999999998,-0.683,-0.299,0.0
-3.5149999999999997,6.989999999999999,-3.0020000000000002,-0.23099999999999996,-0.06600000000000009,0.014999999999999972,1.0
-2.6130000000000004,8.991,1.419,0.009000000000000017,-0.11500000000000002,0.10800000000000012,0.0
-3.879,7.156999999999999,3.7920000000000003,0.195,-0.13400000000000004,-0.1009999999999999,0.0
-2.775,7.95,2.973,-0.434,0.5149999999999999,0.176,0.0
-3.091,8.186,4.795,-0.024999999999999984,0.14299999999999996,-0.16399999999999998,0.0
-2.759,7.280999999999999,4.88,-0.24099999999999996,-0.02599999999999999,0.07000000000000003,0.0
-3.343,7.844999999999999,3.335,0.09499999999999993,-0.6200000000000001,-0.203,0.0
-2.662,7.765000000000001,4.5520000000000005,-0.15699999999999997,-0.15699999999999997,0.06000000000000002,0.0
-2.44,4.4079999999999995,2.241,-0.08000000000000004,-0.04700000000000004,0.11300000000000003,1.0
-4.039,6.583000000000001,5.58,-0.24299999999999997,-0.349,0.015000000000000017,0.0
-1.652,9.111999999999998,1.328,-0.5589999999999999,0.21300000000000002,0.10900000000000003,0.0
-2.9349999999999996,8.078999999999999,3.939,-0.13700000000000004,0.19199999999999998,-0.03700000000000001,0.0
-2.7969999999999997,8.994,2.984,-0.645,0.5339999999999999,0.373,0.0
-3.141,6.839999999999999,4.718,0.011999999999999995,-0.24900000000000003,-0.23700000000000002,0.0
-3.317,7.661999999999999,3.173,-0.496,0.59,0.339,0.0
-2.825,8.171,3.439,-0.23299999999999993,0.42099999999999993,0.071,1.0
-2.811,8.004,3.6099999999999994,-0.15299999999999997,-0.191,0.12700000000000014,0.0
-2.714,7.058,4.797,-0.006999999999999984,-0.05800000000000003,-0.14899999999999988,0.0
-1.464,9.333000000000002,0.784,-0.08099999999999999,-0.017999999999999988,-0.003999999999999978,0.0
-2.586,7.970999999999999,4.316999999999999,0.07499999999999998,0.08599999999999995,-0.14899999999999997,0.0
-2.38,8.014,3.685,0.06799999999999995,0.008999999999999942,-0.20400000000000001,0.0
-2.75,8.032,3.446,-0.306,0.21999999999999997,0.075,0.0
-2.669,7.965000000000001,4.106,-0.007999999999999998,0.06300000000000001,0.025000000000000022,0.0
-3.778,8.306000000000001,2.9019999999999997,-0.25699999999999995,0.12799999999999992,0.039999999999999994,1.0
-5.592999999999999,6.7299999999999995,0.48900000000000005,-0.24299999999999997,0.242,0.16099999999999998,1.0
-1.288,9.516,0.627,-0.086,-0.04299999999999999,0.03900000000000002,0.0
-2.9050000000000002,7.878,3.464,-0.42400000000000004,0.42799999999999994,0.367,0.0
-2.9040000000000004,8.488,3.966,0.11499999999999995,-0.201,-0.17400000000000002,0.0
-4.667,8.074000000000002,2.714,-0.5170000000000001,0.532,0.207,0.0
-0.3960000000000001,4.426,2.37,0.13399999999999995,0.11899999999999995,-0.426,1.0
-1.8990000000000002,9.427,1.985,-0.011000000000000001,0.041000000000000016,0.06500000000000003,0.0
-3.539,8.208,4.632,-0.08499999999999998,0.13599999999999995,-0.10999999999999999,0.0
-1.3729999999999998,9.03,2.038,0.006999999999999977,-0.09200000000000005,-0.051000000000000004,1.0
-2.835,8.761,4.186,-0.007000000000000073,0.005999999999999942,-0.17,0.0
-2.504,7.965999999999999,3.6310000000000002,0.05800000000000001,-0.11100000000000003,-0.12599999999999997,0.0
-2.953,8.583,3.221,-0.15900000000000009,0.305,0.12399999999999997,0.0
-2.0460000000000003,8.629,2.873,-0.13399999999999998,-0.008999999999999989,0.005999999999999998,0.0
-3.596,8.467,2.8289999999999997,-0.31399999999999995,0.2299999999999999,0.01899999999999999,1.0
2.8230000000000004,8.556000000000001,1.439,-0.313,0.1,-0.47800000000000004,1.0
-0.632,4.221,2.11,0.13799999999999996,0.028999999999999936,-0.30899999999999994,1.0
-2.63,7.656000000000001,3.96,-0.11999999999999997,0.05499999999999996,-0.02399999999999997,0.0
-0.753,6.574000000000001,4.923,0.13800000000000007,-0.52,-0.353,0.0
-2.835,8.996,1.391,-0.063,-0.072,-0.018,0.0
-2.9959999999999996,8.350999999999999,3.034,-0.29000000000000004,0.6799999999999999,0.253,0.0
-2.9989999999999997,8.114999999999998,3.07,-0.38700000000000007,0.614,0.177,0.0
-3.253,7.559,3.7,-0.286,-0.056999999999999995,0.009999999999999992,0.0
-2.977,9.17,2.7510000000000003,-0.629,0.45599999999999996,0.398,0.0
-3.033,7.619,3.7830000000000004,-0.07400000000000001,0.0009999999999999788,-0.252,0.0
1.3350000000000002,7.3629999999999995,2.678,-0.33599999999999997,-0.202,-3.608224830031759e-17,1.0
-6.766,7.384,-0.04100000000000006,-0.0019999999999999593,0.10599999999999991,-0.379,1.0
-4.728,7.647,2.725,-0.043000000000000003,0.077,0.01699999999999999,0.0
-2.88,7.812,3.793,-0.04000000000000004,-0.29500000000000004,-0.025000000000000012,0.0
-3.006,8.054,4.169,0.032,-0.198,-0.22799999999999998,0.0
-2.873,8.238,4.006,-0.06200000000000004,0.13799999999999998,-0.083,0.0
-3.4619999999999997,5.473,-8.675999999999998,-0.37699999999999995,-0.20900000000000007,-0.008999999999999998,1.0
-2.577,8.233,4.0600000000000005,0.004999999999999933,0.05299999999999996,-0.12700000000000003,0.0
-2.104,8.725,2.545,-0.08099999999999999,0.004000000000000013,-0.025000000000000005,0.0
-3.9200000000000004,7.343999999999999,2.327,-0.09199999999999996,-0.13800000000000007,-0.017999999999999995,1.0
-2.95,8.166,3.775,0.007999999999999993,0.08599999999999992,-0.10999999999999996,0.0
-3.2840000000000003,7.928,4.130999999999999,-0.148,0.07299999999999998,0.031999999999999994,0.0
-2.9709999999999996,7.888000000000001,3.5060000000000002,-0.11799999999999997,-0.33899999999999997,-0.03999999999999989,0.0
-3.4899999999999998,5.631,5.936,-0.09899999999999996,-0.20299999999999999,0.41600000000000004,0.0
-4.207,6.935,3.661,-0.191,-0.24,0.01999999999999999,0.0
-2.568,7.715999999999999,4.016,0.296,-0.784,-0.17499999999999996,0.0
-3.9550000000000005,7.51,3.7369999999999997,-0.10899999999999999,0.05499999999999995,0.01800000000000012,0.0
-5.2780000000000005,7.536000000000001,-1.015,0.14399999999999996,-0.015000000000000036,0.194,1.0
-3.75,6.843000000000001,-3.3280000000000003,-0.24,-0.17700000000000007,-0.07200000000000004,1.0
-2.219,8.9,2.12,0.06400000000000002,0.15499999999999997,0.0630000000000001,0.0
-1.9149999999999998,8.565000000000001,3.037,-0.061,-0.08299999999999999,-0.0020000000000000018,0.0
-5.816,7.403999999999999,1.499,-0.086,0.021,-0.07600000000000003,0.0
-1.402,9.446,0.9629999999999999,-0.08199999999999999,-0.003999999999999989,0.07200000000000002,0.0
-2.8819999999999997,7.4430000000000005,3.718,-0.10600000000000001,0.02999999999999998,-0.07800000000000001,0.0
-2.7489999999999997,8.302000000000001,4.166,-0.010000000000000012,0.14999999999999997,-0.09299999999999997,0.0
-7.759,2.26,-0.09900000000000002,0.13300000000000003,0.42299999999999993,-0.426,1.0
-5.55,5.748,2.1990000000000003,-0.10399999999999995,0.007999999999999919,0.013000000000000006,1.0
-3.902,7.514999999999999,3.66,-0.004000000000000001,-0.022999999999999996,-0.03400000000000001,0.0
-3.22,7.805,4.135,-0.173,-0.06400000000000004,-0.01699999999999997,0.0
-2.7779999999999996,8.870000000000001,1.4060000000000001,-0.077,-0.09,-0.005000000000000002,0.0
-4.077,7.4670000000000005,1.925,-0.06099999999999994,-0.11500000000000013,-0.352,1.0
-2.2239999999999998,8.466,3.7310000000000003,0.19200000000000003,-0.021000000000000053,-0.4,0.0
-2.7979999999999996,8.811,3.3369999999999997,-0.33099999999999996,-0.0370000000000001,0.04600000000000002,0.0
-3.024,7.981,3.931,0.05499999999999999,0.02199999999999998,-0.10499999999999998,0.0
-1.6300000000000001,9.052000000000001,0.944,-0.06999999999999999,0.044000000000000025,0.11400000000000003,0.0
-2.797,7.7379999999999995,4.4590000000000005,-0.163,-0.13299999999999998,0.07600000000000001,0.0
-3.007,7.659999999999999,3.8649999999999998,-0.11299999999999996,-0.085,-0.0409999999999999,0.0
-3.008,6.960000000000001,4.578,-0.0010000000000000037,-0.246,-0.21000000000000002,0.0
-3.036,7.704000000000001,3.146,-0.026000000000000068,-0.4630000000000001,-0.11700000000000002,0.0
-3.457,7.8759999999999994,2.7249999999999996,-0.326,0.22699999999999995,0.21599999999999997,0.0
-4.453,8.618,-2.209,0.0029999999999999723,0.08999999999999996,0.10400000000000001,1.0
-4.015,7.08,3.967,0.516,-1.3940000000000001,-0.7959999999999999,0.0
-3.123,7.386999999999999,2.915,-0.4490000000000001,0.13699999999999996,0.396,0.0
3.1489999999999996,3.9080000000000004,3.8409999999999997,-0.08900000000000001,-0.45199999999999996,0.364,1.0
-2.2459999999999996,7.761,4.425,0.004999999999999992,-0.04599999999999997,-0.20099999999999993,0.0
-3.2329999999999997,7.001,4.353,-0.19899999999999998,-0.02900000000000001,-0.02399999999999989,0.0
-3.3609999999999998,7.836,3.042,-0.21900000000000003,0.14399999999999996,0.05099999999999999,0.0
-6.7,7.633,-0.3670000000000001,0.051000000000000045,-0.23600000000000007,-0.417,1.0
-5.6339999999999995,4.1579999999999995,3.223,-0.11099999999999995,-0.0660000000000001,0.22800000000000004,1.0
-3.03,7.328,-2.719,-0.173,-0.11900000000000006,0.04599999999999997,1.0
-2.8270000000000004,8.831999999999999,1.7469999999999999,-0.132,0.05900000000000001,-0.04000000000000001,0.0
-2.094,8.967,3.3630000000000004,0.013999999999999957,-0.13500000000000004,-0.15699999999999997,0.0
-2.192,8.821000000000002,2.6339999999999995,-0.08199999999999999,-0.03699999999999999,-0.02,0.0
-7.2299999999999995,4.65,-8.363,0.7020000000000001,-0.298,-0.39,0.0
-2.554,8.12,3.153,0.020999999999999987,-0.202,0.0059999999999999915,0.0
-3.026,7.927,4.697,-0.03800000000000001,-0.033999999999999975,-0.09399999999999996,0.0
-2.822,8.132000000000001,3.592,-0.081,0.025999999999999957,0.06500000000000003,0.0
-2.8449999999999998,8.428,3.293,-0.26099999999999995,0.4009999999999999,0.03400000000000001,1.0
-2.545,8.052000000000001,3.129,-0.23300000000000004,0.05499999999999995,0.15400000000000003,0.0
-2.0380000000000003,8.699,2.969,-0.085,-0.05499999999999998,-0.002999999999999998,0.0
-3.075,8.044999999999998,3.6440000000000006,-0.009000000000000008,-0.024000000000000014,-0.021000000000000005,0.0
-3.3979999999999997,8.123000000000001,4.071,0.04299999999999994,-0.11000000000000006,-0.29500000000000004,0.0
-5.272,7.492,-0.5189999999999999,0.15999999999999998,0.04099999999999997,0.183,1.0
-2.2800000000000002,8.103,3.8339999999999996,-0.08,-0.09,0.012999999999999994,0.0
-3.9240000000000004,6.803,3.711,0.037000000000000026,-0.073,-0.2849999999999999,0.0
-2.622,9.478,2.729,-0.195,-0.072,0.13900000000000007,0.0
-0.461,5.877,3.7379999999999995,0.07999999999999997,0.11099999999999995,-0.21799999999999997,1.0
-1.294,8.641,3.169,0.049,-0.48600000000000004,-0.255,0.0
-1.7579999999999998,9.136000000000001,1.3490000000000002,-0.13,0.05500000000000003,0.10300000000000005,0.0
2.26,3.7590000000000003,3.168,0.060999999999999964,-0.12500000000000006,-0.202,1.0
-1.3119999999999998,8.78,-0.4940000000000001,0.09499999999999997,0.036999999999999963,-0.05200000000000001,1.0
-5.601,6.720000000000001,-0.20999999999999996,-0.34199999999999997,0.37,0.259,1.0
-3.6399999999999997,7.849000000000001,3.818,-0.048999999999999974,-0.6990000000000001,-0.472,0.0
-2.0140000000000002,7.398999999999999,4.6450000000000005,-0.20800000000000002,-0.03600000000000002,-0.1259999999999999,0.0
-2.433,8.555000000000001,4.164,0.0030000000000000027,0.036999999999999936,-0.11599999999999999,0.0
-2.366,8.858,2.243,-0.101,0.024000000000000004,-0.028000000000000004,0.0
-3.019,9.009,4.15,0.185,-0.09100000000000001,-0.11000000000000001,0.0
-2.332,8.809000000000001,3.1089999999999995,-0.07100000000000004,-0.051000000000000045,-0.097,0.0
-2.4059999999999997,8.216000000000001,4.299,-0.0020000000000000686,0.003999999999999953,-0.11199999999999999,0.0
-2.3120000000000003,8.467,3.94,0.06200000000000001,0.048999999999999946,-0.16999999999999998,0.0
-3.4129999999999994,7.452000000000001,3.165,0.134,-0.04800000000000003,0.044000000000000025,0.0
-3.647,5.457,5.263,0.002000000000000041,-0.024999999999999984,-0.0009999999999999731,0.0
-3.607,6.744,-0.23300000000000026,0.859,-0.41500000000000004,-0.077,1.0
-2.474,7.547,4.3580000000000005,-0.186,-0.311,-0.044999999999999894,0.0
-1.255,9.012,2.098,-0.061,0.017000000000000015,-0.06499999999999996,0.0
-3.412,7.153999999999999,4.665,-0.11600000000000002,0.081,0.15799999999999997,0.0
-3.2439999999999998,7.787000000000001,4.157,-0.054000000000000006,0.11800000000000002,0.05900000000000003,0.0
-3.257,7.427,3.3519999999999994,-0.28099999999999997,0.01399999999999998,0.079,0.0
-2.7060000000000004,6.378,5.111,0.05499999999999999,0.05700000000000003,0.18200000000000002,0.0
-3.153,7.475999999999999,4.343999999999999,-0.095,-0.005000000000000002,-0.057000000000000016,0.0
-5.202,7.551,2.395,-0.225,-0.21399999999999997,0.12,0.0
-2.8289999999999997,8.133,3.596,-0.293,0.5399999999999998,0.30999999999999994,1.0
-2.856,8.568000000000001,2.56,-0.32699999999999996,0.23099999999999993,0.198,1.0
-2.62,8.142,3.6260000000000003,-0.19700000000000004,0.33599999999999997,-0.06899999999999999,0.0
-3.179,8.532,2.475,-0.21599999999999997,-0.03800000000000001,-0.03399999999999987,0.0
-3.325,7.74,2.973,-0.33399999999999996,0.15699999999999995,0.13200000000000003,1.0
-1.541,5.746,-3.153,0.20400000000000004,0.42899999999999994,-0.03600000000000002,1.0
-1.327,9.3,0.665,-0.039,0.007000000000000024,-0.05599999999999998,0.0
-8.142,4.45,-7.685,0.5330000000000001,-0.313,-0.29500000000000004,0.0
-1.2550000000000001,7.941,4.076,-0.363,-0.02500000000000003,-0.1089999999999999,0.0
-4.543,7.154999999999999,3.312,-0.12099999999999997,-0.129,0.0960000000000001,0.0
-2.683,8.196,3.628,-0.2789999999999999,0.5129999999999999,0.276,1.0
-2.366,8.017999999999999,3.7279999999999993,0.32599999999999996,-0.30300000000000005,-0.325,0.0
-2.777,8.788,1.7,-0.06100000000000001,-0.049999999999999996,-0.03900000000000001,0.0
-5.691,7.725,1.545,-0.132,-0.057999999999999996,0.05799999999999998,0.0
-2.893,8.226,4.007,-0.03300000000000004,-0.12800000000000003,-0.056000000000000015,0.0
-2.96,8.319999999999999,2.675,-0.32300000000000006,0.5469999999999999,0.09399999999999997,0.0
-3.012,8.193999999999999,2.976,-0.21600000000000005,0.24099999999999996,0.19299999999999998,0.0
-3.1910000000000003,7.674000000000001,3.6620000000000004,0.10799999999999996,-0.14900000000000002,-0.148,0.0
-2.369,8.042,3.65,-0.246,0.283,0.135,0.0
-3.496,7.929,3.4539999999999997,-0.03200000000000004,-0.22900000000000004,-0.020000000000000007,0.0
-3.1679999999999997,5.426,6.498,-0.010999999999999977,-0.126,0.41600000000000004,0.0
-2.6420000000000003,8.175,2.998,-0.343,0.19299999999999998,0.175,0.0
-2.149,8.691999999999998,2.538,-0.097,0.04600000000000001,-0.019000000000000006,0.0
-2.768,8.706,1.6059999999999999,-0.097,-0.004999999999999995,-0.068,0.0
-4.126,8.428,2.597,-0.518,0.709,0.18499999999999997,0.0
-4.9590000000000005,7.5649999999999995,2.459,-0.022,0.077,-0.04300000000000001,0.0
-2.148,7.812,4.39,0.133,-0.06400000000000006,-0.184,0.0
-2.8810000000000002,8.443,2.9389999999999996,0.10099999999999994,-0.24900000000000003,-0.17700000000000005,0.0
-3.9619999999999997,8.114,2.629,0.11599999999999996,-0.521,-0.192,0.0
-2.615,7.941000000000001,4.237,0.03899999999999999,0.10699999999999996,-0.12399999999999997,0.0
-0.9359999999999999,8.870999999999999,2.8099999999999996,-0.18299999999999997,0.11599999999999996,-0.054999999999999896,0.0
-3.239,7.583,3.04,-0.20900000000000002,-0.01700000000000003,0.091,0.0
-2.902,7.9030000000000005,3.6079999999999997,-0.21200000000000002,0.05699999999999998,0.1500000000000001,0.0
-2.907,8.969,1.4659999999999997,-0.04900000000000001,-0.177,0.01,0.0
-2.775,8.536,3.6519999999999997,0.12400000000000004,0.13099999999999995,-0.308,0.0
-3.18,7.878,3.4910000000000005,-0.25800000000000006,0.417,0.18,0.0
-4.161,5.4719999999999995,4.985,0.06500000000000004,-0.06999999999999999,0.13600000000000004,0.0
-3.287,7.427,-0.9639999999999999,-0.26599999999999996,-0.24400000000000008,0.25,1.0
-3.152,7.944,3.31,-0.14699999999999996,-0.267,-0.044999999999999894,0.0
-3.5460000000000003,8.237,4.537000000000001,-0.03199999999999998,0.051999999999999956,-0.13499999999999998,0.0
-4.06,6.316,-2.2560000000000002,-0.33599999999999997,-0.2770000000000001,-0.019999999999999997,1.0
-2.596,7.965000000000001,4.2,0.016,0.03400000000000001,0.01900000000000002,0.0
-3.098,8.997,4.122999999999999,0.15,-0.087,-0.131,0.0
-4.765,5.048,5.99,-0.07799999999999996,-0.3180000000000001,-0.10100000000000002,1.0
-3.015,7.133,4.523000000000001,-0.021,-0.221,-0.144,0.0
-4.566,7.0680000000000005,5.383,0.02500000000000004,-0.03199999999999999,0.471,0.0
-3.2409999999999997,7.470000000000001,4.135,0.023000000000000027,-0.016,-0.2129999999999999,0.0
-4.176,7.566,2.0919999999999996,-0.28900000000000003,-0.37100000000000005,0.26,0.0
-3.3810000000000002,7.984,3.0660000000000003,-0.04299999999999997,0.11799999999999997,0.0800000000000001,0.0
-2.696,7.664,2.898,0.08999999999999998,-0.04000000000000002,-0.348,0.0
-2.744,8.136999999999999,3.044,-0.10600000000000002,-0.023000000000000048,0.007000000000000006,0.0
-1.923,7.016,-2.847,-0.44799999999999995,-0.19000000000000006,0.14699999999999996,1.0
-0.157,8.806000000000001,3.058,-0.493,-0.14800000000000002,0.003000000000000108,0.0
-3.195,7.989,3.464,-0.11799999999999997,-0.181,-0.05000000000000001,0.0
-2.599,9.134,0.22999999999999998,-0.14799999999999996,-0.11300000000000003,0.10200000000000012,0.0
-3.177,7.6129999999999995,3.8300000000000005,-0.087,0.09499999999999999,0.024000000000000014,0.0
-3.306,7.776000000000001,4.166,-0.007000000000000004,0.008000000000000012,0.01200000000000003,0.0
-2.761,8.050999999999998,3.929,0.01299999999999996,-0.24900000000000003,-0.11700000000000002,0.0
-1.639,8.966,1.332,-0.066,-0.088,0.12000000000000004,0.0
0.7180000000000002,5.917,0.8780000000000001,-0.292,-0.22000000000000003,0.49800000000000005,1.0
2.175,4.263,3.2620000000000005,-0.07400000000000002,-0.339,0.186,1.0
-2.498,7.87,3.7560000000000002,0.03700000000000003,0.20599999999999996,-0.21799999999999997,0.0
-3.215,7.911,3.3890000000000002,-0.14500000000000002,0.00899999999999997,0.00699999999999999,0.0
-2.722,7.837000000000001,4.165000000000001,0.093,-0.10100000000000005,-0.22599999999999998,0.0
-4.573,6.6659999999999995,2.972,-0.27699999999999997,0.0020000000000000044,0.3580000000000001,0.0
-2.975,8.081999999999999,4.461,0.196,-0.11400000000000003,-0.251,0.0
-3.969,7.561,3.906,-0.20099999999999998,-0.07000000000000002,0.177,0.0
-2.927,7.758,4.2330000000000005,-0.07099999999999998,-0.14999999999999997,-0.26599999999999996,0.0
-4.7989999999999995,8.211000000000002,-2.319,0.09799999999999998,-0.08200000000000005,0.14100000000000001,1.0
-2.378,8.378,4.226,0.173,0.20399999999999996,-0.22799999999999998,0.0
-3.696,7.476999999999999,3.6049999999999995,-0.21700000000000003,0.08299999999999996,0.27699999999999997,0.0
0.18099999999999977,5.422,3.4509999999999996,-0.139,-0.49700000000000005,0.506,1.0
-1.587,6.683,7.047,-0.01099999999999998,0.134,0.5309999999999999,0.0
-2.9099999999999997,7.787000000000001,3.4659999999999997,0.17399999999999993,-0.20400000000000004,-0.22800000000000004,0.0
-3.502,7.993,3.749,-0.05300000000000005,-0.08000000000000003,-0.008000000000000021,0.0
-3.3980000000000006,6.547999999999999,5.8229999999999995,-0.329,0.5309999999999999,0.17099999999999999,1.0
-3.438,7.766,3.8549999999999995,-0.095,-0.10000000000000005,-0.12,0.0
-7.003,4.8309999999999995,-8.42,0.684,-0.31999999999999995,-0.29999999999999993,0.0
-2.6399999999999997,8.3,3.8910000000000005,-0.259,0.26999999999999996,0.09500000000000004,0.0
-5.55,6.676,-0.22699999999999995,-0.29599999999999993,0.44799999999999995,0.251,1.0
-3.311,7.776999999999999,2.7009999999999996,-0.31000000000000005,0.22799999999999992,0.197,0.0
-3.1790000000000003,7.610000000000001,4.1,0.15499999999999997,-0.29999999999999993,-0.17399999999999996,0.0
-2.8329999999999997,7.911,3.774,-0.15100000000000005,0.207,-0.019000000000000006,0.0
-3.4760000000000004,5.639,5.4030000000000005,-0.009999999999999962,0.018000000000000016,-0.04599999999999997,0.0
-3.4620000000000006,8.591,1.482,0.213,-0.13000000000000003,-0.14399999999999988,0.0
-2.1270000000000002,7.8709999999999996,3.565,-0.179,0.04000000000000001,0.014000000000000002,0.0
-3.088,7.609999999999999,3.9590000000000005,-0.05900000000000001,-0.09300000000000004,-0.05599999999999998,0.0
-3.0469999999999997,7.737,3.1670000000000003,-0.266,0.27999999999999997,0.221,0.0
-3.1029999999999998,7.837999999999999,4.709,-0.004000000000000009,-0.058999999999999976,-0.11899999999999995,0.0
-2.348,8.471,4.048,-0.06999999999999998,0.15799999999999995,-0.057999999999999975,0.0
-4.522,8.16,2.633,-0.53,0.616,0.182,0.0
-0.023,9.469,1.8029999999999997,-0.441,-0.025000000000000012,-0.18000000000000002,1.0
-2.428,8.697999999999999,2.0020000000000002,-0.072,-0.022999999999999986,-0.019000000000000003,0.0
-2.79,7.917999999999999,3.415,0.011999999999999938,-0.16100000000000003,-0.246,0.0
-4.572,9.992,2.2910000000000004,0.12799999999999997,-0.491,0.16399999999999998,0.0
-1.9789999999999999,8.462,3.248,-0.056999999999999974,-0.25900000000000006,0.036000000000000115,0.0
-2.5060000000000002,8.533,2.7649999999999997,-0.15899999999999997,0.22299999999999995,-0.005999999999999983,0.0
-3.176,7.356,3.9010000000000007,-0.05699999999999998,-0.082,-0.040999999999999884,0.0
-3.3609999999999998,8.034,3.2560000000000002,0.03199999999999996,-0.329,-0.101,0.0
-2.856,7.234999999999999,4.4159999999999995,-0.038,-0.343,0.13600000000000004,0.0
-2.3649999999999998,6.099,6.9670000000000005,-0.02999999999999998,-0.048,0.6980000000000001,0.0
4.046,4.996,0.9869999999999999,-0.25,-0.21400000000000002,0.465,1.0
-3.1889999999999996,7.959999999999999,3.6,-0.17999999999999997,-0.0530000000000001,0.0029999999999999944,1.0
-3.498,6.695,2.6220000000000003,-0.307,-0.08200000000000003,0.18100000000000005,0.0
-3.864,8.023,2.872,0.10200000000000001,0.33599999999999997,-0.15799999999999986,0.0
-2.607,8.189,3.7590000000000003,-0.16100000000000003,0.366,-0.078,0.0
-1.7129999999999999,9.007000000000001,-0.1280000000000002,-0.06300000000000003,-0.4600000000000001,0.047,1.0
-3.0970000000000004,7.858,3.636,-0.07399999999999998,-0.093,0.007000000000000105,0.0
-1.366,9.312999999999999,1.248,-0.05900000000000001,0.08400000000000003,0.04200000000000003,0.0
-4.014,7.447,4.062,-0.06699999999999999,-0.23900000000000002,-0.08900000000000002,0.0
-2.907,7.609,4.4350000000000005,0.13399999999999998,-0.18299999999999997,-0.13199999999999998,0.0
-2.64,7.714999999999999,4.215999999999999,-0.159,-0.046999999999999986,0.06900000000000002,0.0
-2.197,8.857,2.601,-0.078,-0.030999999999999993,-0.015,0.0
-2.048,8.559999999999999,3.8240000000000003,-0.39099999999999996,0.0030000000000000027,0.0029999999999999983,0.0
-2.413,8.050999999999998,3.156,-0.156,0.146,0.11300000000000002,0.0
-1.938,8.166,4.095000000000001,-0.11599999999999999,0.047,0.023999999999999997,0.0
-2.621,8.261,3.018,-0.265,0.479,0.18,0.0
-1.1439999999999997,6.673,-4.543000000000001,-0.371,-0.2700000000000001,0.05500000000000001,1.0
-1.7380000000000002,9.161,1.2129999999999999,-0.101,0.03300000000000003,0.15800000000000003,0.0
-3.2949999999999995,7.507,3.7800000000000002,-0.02899999999999997,-0.028999999999999988,-0.2299999999999999,0.0
-3.165,7.780999999999999,3.91,0.19699999999999998,-0.429,-0.26899999999999996,0.0
-2.706,7.751,3.7039999999999997,0.072,-0.09400000000000004,-0.231,0.0
-3.0380000000000003,8.567,3.1109999999999998,-0.14800000000000008,0.291,0.11399999999999999,0.0
-3.122,8.058,3.7479999999999998,0.17,-0.267,-0.269,0.0
-2.952,8.353,1.289,-0.15299999999999994,-0.1910000000000001,0.174,1.0
-5.776999999999999,5.106999999999999,2.141,-0.09999999999999995,0.08799999999999993,-0.073,1.0
-2.7380000000000004,8.009,3.536,-0.10300000000000005,0.14199999999999996,-0.122,0.0
-2.642,8.878,1.6560000000000001,-0.09,-0.018999999999999982,-0.05,0.0
-3.0799999999999996,8.288,3.857,-0.221,0.25699999999999995,0.07600000000000003,0.0
-2.504,7.87,3.4549999999999996,-0.031000000000000017,0.05799999999999996,0.077,0.0
-4.726,7.116,3.2560000000000002,-0.13499999999999995,-0.031999999999999994,0.0640000000000001,0.0
2.778,5.382,3.308,-0.10200000000000001,-0.17300000000000001,-0.07300000000000004,1.0
-1.342,9.012,2.194,0.077,-0.23899999999999996,-0.16999999999999996,0.0
-2.5100000000000002,8.021,3.447,-0.24500000000000002,0.10200000000000001,0.029000000000000005,0.0
-4.4030000000000005,7.046000000000001,4.067,0.302,-0.21500000000000002,-0.1859999999999999,0.0
-3.6020000000000003,8.208,4.372,0.020000000000000018,-0.21200000000000005,-0.187,0.0
-2.406,7.698,4.09,0.179,-0.45899999999999996,-0.266,0.0
-2.77,7.779999999999999,4.172,0.10400000000000001,-0.10800000000000003,-0.23299999999999996,0.0
-2.663,8.895,1.526,-0.153,0.05000000000000001,0.009999999999999998,0.0
-1.9470000000000003,8.894,2.373,-0.38299999999999995,0.301,-0.09299999999999997,0.0
-4.587999999999999,6.728,2.13,0.06000000000000003,-0.47800000000000004,-0.174,1.0
-4.715,7.244999999999999,2.7150000000000003,-0.019999999999999973,-0.23100000000000004,-0.0019999999999998908,0.0
-2.1350000000000002,8.457,2.928,0.0060000000000000695,-0.3660000000000001,-0.04200000000000002,1.0
-4.098,6.475,3.082,-0.09000000000000004,-0.04400000000000003,-0.018999999999999982,1.0
-3.964,6.702,5.197,-0.44299999999999995,-0.45,-0.12799999999999997,0.0
-2.954,8.984,3.6399999999999997,0.2919999999999999,-0.36500000000000005,-0.27799999999999997,0.0
-3.1100000000000003,8.837,3.397,0.30200000000000005,-0.24500000000000005,-0.5,0.0
1.504,5.187,2.984,-0.11600000000000002,-0.32599999999999996,0.15599999999999997,1.0
-1.2489999999999999,8.916,2.0260000000000002,-0.037,-0.05499999999999998,-0.07799999999999996,0.0
-4.686000000000001,7.497,2.9739999999999998,0.5240000000000001,-0.9780000000000001,-0.04800000000000001,1.0
-3.743,7.911999999999999,2.932,0.043999999999999956,-0.517,-0.131,0.0
-4.731,6.95,2.5869999999999997,-0.11999999999999997,-0.04699999999999999,-0.04899999999999989,0.0
-4.083,8.175,1.9420000000000002,-0.06999999999999998,-0.01100000000000002,0.1180000000000001,0.0
-3.3620000000000005,7.989,3.7700000000000005,-0.123,-0.05700000000000005,-0.118,0.0
-2.02,8.772,3.275,-0.38,-0.015,0.049,0.0
-1.764,6.609999999999999,4.962,-0.221,-0.018999999999999982,0.442,0.0
-3.4210000000000003,8.382000000000001,2.523,-0.267,0.5799999999999998,0.391,0.0
-3.349,7.002,4.525,0.142,-0.07500000000000002,-0.1259999999999999,0.0
-2.984,7.57,3.429,0.291,-0.558,-0.37,0.0
-3.761,6.5760000000000005,4.557,-0.11200000000000002,-0.156,0.03599999999999999,0.0
-4.499,7.478,3.08,-0.11700000000000003,0.10799999999999996,0.10900000000000003,1.0
-2.189,8.805000000000001,2.618,-0.08,-0.03599999999999999,-0.015,0.0
-3.719,8.286,2.057,-0.10299999999999998,-0.09800000000000002,0.1470000000000001,0.0
-4.553,7.595000000000001,2.854,-0.39099999999999996,0.31500000000000006,0.14600000000000007,0.0
-3.532,7.819,3.429,-0.297,-0.02000000000000002,0.05700000000000013,0.0
-1.624,6.679,4.772,-0.15899999999999997,-0.12199999999999997,0.376,0.0
-6.11,4.424,-6.392,0.41600000000000004,-0.5660000000000001,-0.384,0.0
-2.9720000000000004,7.428,3.9160000000000004,0.16499999999999998,-0.32900000000000007,-0.364,0.0
-3.6340000000000003,6.339,5.547,-0.01799999999999997,0.06399999999999999,0.017000000000000105,0.0
-2.473,8.806000000000001,1.8900000000000001,-0.101,-0.049999999999999975,-0.035,0.0
-3.073,7.316,2.887,-0.3320000000000001,-0.013000000000000034,0.26799999999999996,0.0
-3.6700000000000004,7.386,4.304,-0.15799999999999997,-0.051000000000000045,0.003000000000000036,0.0
-2.479,7.628,3.411,-0.28200000000000003,0.20099999999999998,0.20900000000000002,0.0
-3.343,7.884,3.554,0.010000000000000033,-0.11000000000000001,-0.008999999999999895,0.0
-2.8939999999999997,7.6899999999999995,4.079,-0.07899999999999999,0.186,-0.06299999999999999,0.0
-0.857,6.475,-6.145999999999999,-0.45599999999999996,-0.2800000000000001,-0.10100000000000005,1.0
-2.509,8.834,1.702,-0.11399999999999999,-0.15,-0.072,0.0
-2.6719999999999997,8.839,3.6430000000000007,0.24199999999999994,-0.2540000000000001,-0.29000000000000004,0.0
-3.2840000000000003,7.319,4.4,-0.10600000000000001,0.17200000000000001,0.154,0.0
-1.0849999999999997,7.759,2.8939999999999997,-0.13699999999999996,0.40599999999999986,-0.093,1.0
-3.248,7.973000000000001,4.008,0.12399999999999997,0.08599999999999998,-0.201,0.0
-2.898,8.321000000000002,3.563999999999999,0.168,-0.21799999999999997,-0.20999999999999996,0.0
-2.3520000000000003,8.762,2.001,-0.083,-0.02299999999999999,-1.3877787807814458e-18,0.0
-1.985,5.045,2.711,0.008999999999999961,-0.04300000000000005,0.06900000000000002,1.0
-2.152,6.511,-0.14800000000000021,0.19400000000000003,0.49099999999999994,0.011999999999999978,1.0
-3.2079999999999997,8.648,3.614,0.16300000000000003,-0.18700000000000006,-0.27199999999999996,0.0
-3.5770000000000004,7.578999999999999,2.992,-0.06700000000000003,-0.08100000000000004,0.044000000000000004,0.0
-3.1830000000000003,7.716000000000001,3.59,-0.08900000000000004,-0.135,-0.05700000000000001,0.0
-2.868,7.931,3.5479999999999996,-0.20000000000000004,0.146,-0.05800000000000001,0.0
-2.4370000000000003,7.6450000000000005,4.0,-0.044,-0.274,-0.10700000000000001,0.0
-2.4090000000000003,7.8420000000000005,4.130000000000001,0.06100000000000001,-0.15300000000000005,-0.08399999999999998,0.0
-2.492,8.984,4.133,0.11199999999999996,-0.012000000000000077,-0.26199999999999996,0.0
-3.928,7.342999999999999,3.432,-0.040999999999999974,-0.024999999999999994,-0.2319999999999999,0.0
-2.4059999999999997,8.91,2.252,-0.08700000000000001,0.021000000000000005,-0.034999999999999996,0.0
-5.55,7.687,1.653,-0.173,-0.10500000000000001,0.087,0.0
-2.102,8.921,2.4400000000000004,-0.219,-0.06999999999999999,0.06799999999999999,0.0
-2.351,8.693000000000001,2.034,-0.085,-0.017999999999999985,-0.0040000000000000036,0.0
-3.12,9.02,1.526,-0.281,0.31999999999999995,0.038000000000000124,0.0
-3.011,8.217,3.496,-0.01,-0.125,-0.03900000000000001,0.0
-2.418,8.091,3.625,0.05399999999999996,0.04399999999999994,-0.199,0.0
0.9550000000000001,3.9569999999999994,2.1279999999999997,0.08599999999999997,0.003999999999999962,-0.12699999999999997,1.0
-4.34,7.829000000000001,2.273,0.10600000000000001,-0.02100000000000002,0.012000000000000104,0.0
-3.045,8.861,1.923,-0.24799999999999994,0.09699999999999999,-0.013999999999999874,0.0
-3.6630000000000003,8.209,2.13,0.07300000000000002,0.0009999999999999898,-0.1299999999999999,0.0
-1.3900000000000001,9.489,0.692,-0.091,-0.039999999999999994,0.033000000000000015,0.0
-3.1250000000000004,6.593999999999999,5.007,-0.13499999999999995,-0.632,-0.33499999999999996,0.0
-2.489,8.112,4.371,0.12999999999999995,-0.10100000000000005,-0.21399999999999997,0.0
-2.694,8.163,3.6790000000000007,-0.29999999999999993,0.5049999999999999,0.28800000000000003,1.0
-2.504,7.859,4.286,-0.213,0.13200000000000003,0.07100000000000002,0.0
-2.7150000000000003,7.688999999999998,4.537999999999999,-0.16699999999999998,-0.15,-0.014999999999999982,0.0
-2.379,9.02,1.9129999999999998,0.03900000000000002,0.09199999999999997,0.0770000000000001,0.0
-3.2039999999999997,7.8199999999999985,3.4470000000000005,0.07700000000000004,-0.238,0.09600000000000011,0.0
-1.022,4.220000000000001,1.809,0.14599999999999996,-0.15800000000000008,-0.15299999999999997,1.0
-2.696,8.835,1.5379999999999998,-0.08099999999999999,-0.051000000000000004,-0.030000000000000006,0.0
-2.2990000000000004,7.246,4.936999999999999,-0.16199999999999998,-0.048999999999999995,-0.02599999999999989,0.0
-5.669,6.602000000000001,2.075,-0.24599999999999994,-0.0049999999999999906,0.1410000000000001,0.0
-5.662,7.526000000000001,0.71,-0.09099999999999997,-0.08600000000000006,0.0069999999999999785,1.0
-1.6030000000000002,9.501999999999999,0.951,-0.142,0.11100000000000002,0.09200000000000001,0.0
-1.637,9.451,1.024,-0.098,0.12600000000000003,0.07200000000000004,0.0
-3.144,7.9590000000000005,2.9680000000000004,-0.30700000000000005,0.049999999999999954,0.191,0.0
-3.1420000000000003,8.068999999999999,3.6390000000000002,0.23899999999999993,-0.36500000000000005,-0.31100000000000005,0.0
-3.7349999999999994,7.462000000000001,3.618,-0.024999999999999967,-0.263,0.13400000000000012,0.0
-4.739,7.968999999999999,1.579,0.08299999999999996,-0.016000000000000035,0.01800000000000001,1.0
-1.3559999999999999,6.822,7.025,-0.03199999999999998,0.253,0.229,0.0
-1.192,8.57,2.969,0.039,-0.31599999999999995,-0.231,0.0
-4.318,7.063,4.17,-0.091,-0.21300000000000002,-0.04600000000000002,0.0
-3.9930000000000008,7.531000000000001,3.593,-0.009000000000000001,-0.023,-0.037000000000000005,0.0
-3.345,7.641,3.4299999999999997,-0.207,-0.097,0.014999999999999996,0.0
-2.7969999999999997,8.489,2.1580000000000004,0.10000000000000005,0.11699999999999999,-0.13699999999999987,0.0
-2.7340000000000004,8.059000000000001,3.5140000000000002,0.01199999999999999,-0.06800000000000002,-0.06000000000000001,0.0
-1.325,9.244,1.9920000000000002,-0.024,-0.015999999999999983,-0.11799999999999997,0.0
-1.519,8.797999999999998,2.65,0.193,-0.46299999999999997,-0.20400000000000001,0.0
-2.461,8.163,3.6480000000000006,0.07,-0.12200000000000004,-0.17499999999999996,0.0
-3.1,7.476999999999999,4.308,0.03800000000000003,0.013999999999999999,-0.2699999999999999,0.0
-2.537,8.85,1.6320000000000001,-0.087,-0.09399999999999999,-0.042,0.0
-2.1149999999999998,7.635,3.6279999999999992,-0.132,-0.001000000000000012,-0.034,0.0
-2.643,8.094,3.537,-0.16799999999999998,-0.13300000000000003,0.07300000000000012,0.0
-4.07,6.816,1.9579999999999997,-0.675,-0.364,0.562,0.0
-1.65,5.856,-6.533000000000001,-0.08999999999999997,-0.23000000000000007,-0.07700000000000001,1.0
-3.036,8.285,3.239,0.08099999999999993,-0.26500000000000007,-0.28,0.0
-2.259,7.031999999999999,-1.1030000000000002,0.11600000000000002,-0.25400000000000006,-0.008999999999999994,1.0
-2.124,7.563,4.175,-0.225,-0.012999999999999989,-0.017999999999999995,0.0
-2.4370000000000003,8.600999999999999,4.367,0.11599999999999999,-0.06000000000000007,-0.16399999999999998,0.0
-7.7440000000000015,2.1399999999999997,-3.2299999999999995,-0.11199999999999992,-1.0547118733938987e-16,0.263,1.0
-2.893,8.53,3.6339999999999995,-0.195,0.26999999999999996,0.062,0.0
-2.155,8.395,2.8890000000000002,0.009999999999999998,-0.19,-0.002999999999999997,0.0
-2.5439999999999996,8.987,1.331,-0.093,-0.126,0.027000000000000003,0.0
-1.384,8.783000000000001,0.857,-0.11399999999999999,0.09600000000000002,-0.08299999999999996,0.0
-1.9240000000000002,8.478,3.3299999999999996,-0.091,-0.29300000000000004,0.013000000000000017,0.0
-2.342,8.16,3.62,-0.047,-0.188,0.047,0.0
-0.836,5.494000000000001,3.016,-0.005000000000000016,-0.399,0.21799999999999997,1.0
-1.9010000000000002,8.783,2.82,0.07799999999999999,-0.633,-0.10400000000000001,0.0
-4.3100000000000005,7.226999999999999,3.3590000000000004,-0.07799999999999996,-0.248,0.1270000000000001,0.0
-2.6830000000000003,8.584999999999999,3.836,0.06999999999999999,0.11699999999999992,-0.20099999999999998,0.0
-6.023999999999999,4.273,1.544,-0.2049999999999999,0.1899999999999999,0.17600000000000002,1.0
-1.343,8.848,0.671,-0.118,0.06600000000000002,-0.06999999999999998,0.0
-3.7620000000000005,7.703999999999999,3.379,0.11399999999999999,-0.433,-0.173,0.0
-3.2659999999999996,7.406000000000001,3.9869999999999997,-0.060999999999999985,-0.014000000000000012,-0.041000000000000016,0.0
-2.084,7.734999999999999,4.385,-0.32299999999999995,-0.04599999999999999,-0.062,0.0
-3.035,7.965000000000001,3.607,0.04600000000000005,0.1919999999999999,0.087,1.0
-2.286,8.114,4.134,-0.167,0.016000000000000007,0.02100000000000002,0.0
-1.3850000000000002,8.798,0.9209999999999999,-0.10600000000000001,0.041000000000000016,-0.11899999999999997,0.0
-0.701,9.521,0.9289999999999999,-0.12499999999999996,-0.15700000000000003,0.22400000000000012,0.0
-3.7079999999999997,7.031999999999999,4.21,0.20800000000000002,-0.11500000000000003,-0.1319999999999999,0.0
-2.6830000000000003,8.009,3.5170000000000003,0.191,-0.386,-0.25,0.0
-1.6939999999999997,9.128,1.32,-0.083,-0.05999999999999998,0.06600000000000003,0.0
-1.5,8.745999999999999,3.2880000000000003,0.05700000000000003,0.33999999999999997,-0.036999999999999894,0.0
-2.473,8.323,3.8689999999999998,-0.06300000000000004,0.06299999999999996,-0.019,0.0
-3.815,7.115,4.287000000000001,-0.31799999999999995,0.12599999999999997,0.03700000000000012,0.0
-2.019,8.106,4.083,-0.12,0.008999999999999998,0.026999999999999996,0.0
-0.43900000000000006,6.423,4.961,-0.24999999999999992,-0.785,-0.30500000000000005,0.0
-4.327,6.575,0.4949999999999998,-0.26699999999999996,-0.4370000000000001,-0.014999999999999996,1.0
-2.4490000000000003,8.1,4.404999999999999,0.081,-0.08800000000000005,-0.13299999999999995,0.0
-3.3979999999999997,7.675999999999999,3.8609999999999998,0.029000000000000005,-0.123,-0.121,0.0
-2.211,8.056000000000001,4.481,-0.358,-0.02799999999999999,-0.042,0.0
1.8269999999999995,3.7020000000000004,2.406,0.15499999999999994,-0.05800000000000005,-0.391,1.0
-3.6709999999999994,7.630000000000001,3.3630000000000004,-0.5130000000000001,0.658,0.391,0.0
-3.4479999999999995,7.509,3.1759999999999997,0.03,-0.017000000000000022,-0.072,0.0
-3.7380000000000004,7.43,3.382,-0.242,0.04099999999999997,0.15599999999999997,0.0
-3.276,8.448,3.55,0.13100000000000006,0.05699999999999994,-0.296,0.0
-2.9040000000000004,8.596,2.545,0.073,-0.07799999999999999,-0.019999999999999997,0.0
-2.9549999999999996,8.555,3.966,0.091,0.004999999999999926,-0.26599999999999996,0.0
-3.364,7.848000000000001,3.622,0.018000000000000033,-0.078,-0.003999999999999895,0.0
-2.75,8.214,2.929,0.04800000000000002,-0.229,0.07900000000000011,0.0
-2.934,8.96,1.443,-0.06399999999999999,-0.074,-0.016999999999999998,0.0
-3.4339999999999997,6.911,4.855,-0.299,-0.24099999999999996,-0.04900000000000001,0.0
-4.8020000000000005,5.055,5.959,0.07100000000000004,-0.527,-0.202,1.0
-3.07,6.651999999999999,5.33,0.002999999999999994,-0.28700000000000003,-0.195,0.0
-3.8160000000000003,7.475999999999999,3.8950000000000005,-0.19299999999999998,0.07499999999999994,0.10800000000000014,0.0
-0.852,4.736,1.922,0.007999999999999952,0.059999999999999956,0.041000000000000016,1.0
-3.918,8.448,4.182,-0.2779999999999999,0.27399999999999997,0.09600000000000002,0.0
-2.7359999999999998,7.794,3.165,-0.014000000000000007,-0.006000000000000017,-0.178,0.0
-1.8010000000000002,4.593999999999999,-9.066999999999998,-0.1070000000000001,0.12399999999999993,-0.449,0.0
-2.109,8.595,3.009,-0.079,-0.04199999999999998,-0.026000000000000002,0.0
-2.6870000000000003,7.617,3.9520000000000004,-0.09,0.189,-0.023999999999999994,0.0
-1.786,8.629,3.072,-0.047,-0.07499999999999998,-0.024,0.0
-2.148,7.51,4.362,-0.24500000000000002,-0.048,-0.053000000000000005,0.0
-2.037,8.949000000000002,-1.2260000000000002,0.12199999999999997,-0.657,0.084,1.0
2.148,5.226999999999999,3.0669999999999997,-0.099,-0.24100000000000002,0.04299999999999997,1.0
-1.315,9.462,0.772,-0.06500000000000002,-0.03299999999999999,0.029000000000000015,0.0
-3.7990000000000004,8.471,4.357,-0.18999999999999995,0.09899999999999996,0.019000000000000017,0.0
-2.4899999999999998,8.209999999999999,3.431,-0.14500000000000002,0.02099999999999997,-0.009999999999999995,0.0
-3.063,6.8950000000000005,5.6579999999999995,-0.291,0.4969999999999999,0.12899999999999998,1.0
-2.673,8.511,3.838,0.11499999999999999,-0.056000000000000064,-0.14499999999999996,0.0
7.437,4.978,0.6809999999999999,-0.2,-0.003,-0.19700000000000004,1.0
-3.2299999999999995,7.319,4.1240000000000006,-0.015000000000000003,-0.030000000000000037,-0.03499999999999997,0.0
-3.1239999999999997,8.233,3.55,-0.19900000000000007,0.322,0.128,0.0
-3.178,7.736,3.319,-0.191,0.07699999999999999,0.018999999999999996,0.0
-3.222,7.718999999999999,3.534,0.0059999999999999385,0.036999999999999984,-2.2204460492503132e-17,0.0
-2.405,7.62,3.086,-0.22400000000000003,0.12399999999999997,-0.013000000000000003,0.0
-2.977,7.686,3.1819999999999995,0.14499999999999996,-0.04700000000000003,-0.23500000000000001,0.0
-3.059,8.401,2.776,-0.08900000000000001,0.032999999999999995,-0.041,0.0
-3.7310000000000003,7.7440000000000015,2.654,-0.563,0.10800000000000003,0.12500000000000008,0.0
-2.349,8.091,4.115,-0.163,0.0070000000000000106,0.051000000000000024,0.0
-2.0200000000000005,8.553,3.0669999999999997,-0.073,-0.03699999999999999,-0.030000000000000006,0.0
-1.442,8.929,2.5170000000000003,0.139,-0.21599999999999997,-0.236,0.0
-1.3929999999999998,8.507,-1.3370000000000002,0.09899999999999998,0.026999999999999958,-0.10600000000000001,1.0
-2.852,7.126,4.621,-0.072,-0.023999999999999973,0.052000000000000005,0.0
-2.416,7.9510000000000005,4.337000000000001,0.06700000000000002,-0.10400000000000005,-0.08299999999999999,0.0
-2.7749999999999995,8.047,3.4880000000000004,-0.181,-0.138,0.13800000000000012,0.0
-3.3310000000000004,7.760000000000001,3.1369999999999996,-0.5509999999999999,0.369,0.28700000000000003,0.0
-3.175,8.870000000000001,1.378,-0.256,0.225,0.031000000000000128,0.0
-2.513,8.852,1.871,-0.128,-0.055999999999999994,0.007999999999999993,0.0
-1.975,9.024000000000001,3.162,0.03999999999999997,-0.16400000000000006,-0.174,0.0
-4.205,7.065,3.668,-0.048999999999999974,0.11199999999999999,-0.1609999999999999,0.0
-1.521,8.524,3.339,-0.025,-0.41200000000000003,-0.176,0.0
-2.779,8.724,1.623,-0.08099999999999999,-0.019999999999999997,-0.05000000000000001,0.0
-3.877,7.506,3.8760000000000003,-0.020999999999999998,-0.30300000000000005,-0.12000000000000002,0.0
-5.147,7.145999999999999,2.6959999999999997,0.021000000000000022,-0.05700000000000003,-0.2069999999999999,0.0
-3.096,7.44,3.947,0.16499999999999998,-0.17300000000000004,-0.229,0.0
-3.6559999999999997,9.774000000000001,2.2079999999999997,0.19899999999999998,-0.585,0.21200000000000002,0.0
-2.133,8.535,3.0829999999999997,-0.162,0.040000000000000015,0.018,0.0
-2.895,7.566,3.684,-0.17099999999999999,0.007999999999999995,-0.005999999999999892,0.0
-2.993,7.933000000000002,3.63,-0.32099999999999995,0.08499999999999995,-0.018999999999999885,0.0
-3.382,5.880999999999999,-6.408000000000001,0.28200000000000003,0.045999999999999965,-0.023999999999999997,1.0
-2.742,7.8469999999999995,3.992,-0.03700000000000005,-0.258,-0.096,0.0
-1.4769999999999999,9.034,2.0409999999999995,0.03199999999999998,-0.08000000000000004,-0.051000000000000004,1.0
-3.9189999999999996,8.418000000000001,1.6640000000000001,0.05300000000000001,0.255,-0.1029999999999999,0.0
-3.7979999999999996,7.5329999999999995,3.3269999999999995,-0.545,0.4619999999999999,0.43,0.0
-2.167,8.177,3.636,-0.07299999999999995,-0.18400000000000008,-0.091,1.0
-4.3420000000000005,5.795,5.046,0.16600000000000006,-0.05499999999999999,0.15900000000000003,0.0
-2.024,8.017,2.622,-0.316,-0.11999999999999997,0.03800000000000008,0.0
-2.477,8.805,2.42,-0.076,0.0020000000000000052,-0.030000000000000006,0.0
-2.346,8.659,2.975,-0.164,0.09399999999999997,-0.194,0.0
-2.051,8.77,2.6399999999999997,0.07200000000000002,0.30199999999999994,0.052000000000000116,0.0
-1.623,8.981,1.7739999999999998,-0.19100000000000003,-0.19000000000000006,-0.06999999999999999,1.0
-2.846,8.913,-2.5300000000000002,0.14399999999999996,-0.677,0.227,1.0
-1.4689999999999999,8.269000000000002,-1.8619999999999997,-0.676,0.34299999999999997,-0.319,1.0
-3.318,8.033999999999999,2.9,-0.364,0.509,0.252,0.0
-3.758,8.626000000000001,4.331,-0.296,0.32299999999999995,0.09500000000000001,0.0
-2.007,8.178,3.2359999999999998,-0.193,0.077,0.026999999999999996,0.0
-2.102,8.999,2.67,0.487,-0.607,-0.639,0.0
-3.7840000000000003,6.6739999999999995,4.398999999999999,-0.098,-0.213,-0.002000000000000013,0.0
-2.553,7.731,3.1580000000000004,-0.129,0.038999999999999965,0.01999999999999999,0.0
-3.726,7.282000000000001,-0.584,0.09699999999999989,0.19199999999999992,0.04099999999999997,0.0
-3.8880000000000003,7.856999999999999,3.571,-0.21000000000000005,0.21099999999999994,0.255,0.0
-6.399,7.422,-4.09,0.187,-0.10899999999999999,-0.07399999999999998,0.0
-3.8330000000000006,8.056000000000001,2.993,0.08599999999999997,-0.5810000000000001,-0.15499999999999997,0.0
-4.0120000000000005,7.8420000000000005,4.063000000000001,-0.21400000000000002,-0.053000000000000026,0.13399999999999998,0.0
-2.2569999999999997,8.987,1.749,-0.16499999999999998,-0.06699999999999999,-0.046,0.0
-2.7060000000000004,8.809999999999999,1.6179999999999999,-0.098,-0.02999999999999998,-0.05000000000000001,0.0
-2.873,8.050999999999998,3.1580000000000004,-0.264,0.262,0.15499999999999997,0.0
-1.9560000000000002,7.812,3.697,-0.121,-0.12600000000000003,0.01700000000000012,0.0
-2.227,8.819,1.9300000000000002,-0.08800000000000001,-0.03599999999999999,0.0029999999999999983,0.0
-2.644,7.624,4.386,-0.199,0.07500000000000002,0.06400000000000002,0.0
-5.0,7.5009999999999994,2.666,-0.23000000000000004,-0.248,0.125,0.0
-2.8289999999999997,8.010000000000002,3.9370000000000003,-0.035000000000000045,-0.267,-0.07400000000000001,0.0
-2.076,8.298,4.3149999999999995,-0.37,-0.06399999999999999,-0.023,0.0
-3.133,8.486,3.8270000000000004,-0.027999999999999997,-0.018000000000000016,-0.039,0.0
-2.516,8.783,1.616,-0.10600000000000001,-0.08899999999999998,-0.03900000000000001,0.0
-3.85,5.883,5.375,-0.12299999999999997,-0.194,0.16900000000000004,0.0
-2.9829999999999997,7.6,3.6390000000000002,-0.04,-0.05800000000000001,-0.03199999999999999,0.0
-4.258,7.415000000000001,1.957,-0.06800000000000002,-0.45099999999999996,0.12900000000000003,0.0
4.162999999999999,2.771,3.9,0.006999999999999991,-0.32500000000000007,0.14400000000000002,1.0
-2.344,8.433,3.0300000000000002,-0.22799999999999998,-0.053000000000000026,0.045000000000000116,0.0
-2.6470000000000002,8.008,3.715,-0.18400000000000005,0.348,-0.054000000000000006,0.0
-3.3369999999999997,8.940000000000001,3.016,0.07199999999999993,-0.3650000000000001,-0.203,0.0
-3.127,9.025,4.068,0.194,-0.128,-0.143,0.0
-3.6870000000000003,8.053,2.9810000000000003,0.19199999999999998,-0.7310000000000001,-0.286,0.0
-3.179,8.440999999999999,4.996,-0.04099999999999998,0.14499999999999996,-0.15499999999999997,0.0
-3.3659999999999997,8.553999999999998,2.709,-0.3329999999999999,0.41899999999999993,0.12,1.0
-2.342,8.24,3.343,-0.08599999999999994,-0.3870000000000001,-0.28500000000000003,1.0
-2.1599999999999997,7.5760000000000005,3.594,-0.32799999999999996,0.356,0.20599999999999996,0.0
-2.768,8.925,1.8290000000000002,-0.047,0.047,-0.052000000000000005,0.0
-2.943,8.552000000000001,2.63,0.07899999999999999,-0.1,-0.023,0.0
-4.778,7.177000000000001,3.023,0.12600000000000006,-0.12300000000000003,-0.22499999999999987,0.0
-3.159,8.309000000000001,3.535,-0.09,-0.15499999999999997,-0.05,0.0
-3.133,8.296,3.286,-0.21500000000000008,0.3,0.144,0.0
-2.947,7.659000000000001,3.711,-0.041000000000000016,-0.015000000000000013,-0.09100000000000001,0.0
-2.8739999999999997,7.4319999999999995,4.154999999999999,-0.04499999999999997,-0.08499999999999999,-0.011999999999999884,0.0
-3.6380000000000003,6.6739999999999995,4.634,-0.10499999999999998,-0.10200000000000001,0.059999999999999984,0.0
-4.6080000000000005,7.362,3.2670000000000003,0.4790000000000001,-0.9750000000000002,0.04599999999999999,1.0
-1.3939999999999997,8.934999999999999,2.3459999999999996,-0.04700000000000003,-0.15200000000000005,-0.074,1.0
-1.2600000000000002,6.640000000000001,-3.8199999999999994,-0.507,-0.273,0.19199999999999998,1.0
-1.866,7.967999999999999,3.5909999999999997,-0.12599999999999997,-0.23200000000000004,-0.05299999999999988,0.0
-3.468,8.289,3.3589999999999995,-0.21700000000000003,0.49899999999999994,0.254,0.0
-2.725,9.062,3.3019999999999996,0.002000000000000013,0.06900000000000002,0.25700000000000006,0.0
-2.0839999999999996,8.937999999999999,-1.735,0.24299999999999997,-0.769,0.048,1.0
-2.1919999999999997,8.906,2.234,-0.2,-0.056999999999999995,0.028999999999999998,0.0
-3.1450000000000005,8.935999999999998,1.478,-0.08099999999999999,-0.06399999999999999,-0.007999999999999997,0.0
-5.055000000000001,6.796000000000001,2.8299999999999996,-0.294,0.06300000000000003,0.0890000000000001,0.0
-3.0,7.483,2.899,-0.21500000000000008,-0.15900000000000006,0.144,0.0
-6.372000000000001,7.855000000000001,2.248,-0.05699999999999998,-0.038,-0.22699999999999995,0.0
-1.6149999999999998,9.196,1.0779999999999998,-0.5449999999999999,0.21400000000000005,0.10700000000000003,0.0
-2.888,8.587,3.5090000000000003,0.24400000000000005,-0.06600000000000006,-0.44699999999999995,0.0
-3.1710000000000003,8.009,3.322,0.07599999999999998,-0.449,-0.22400000000000003,0.0
-1.554,7.414,3.636,0.17200000000000001,-0.16700000000000012,-0.27999999999999997,1.0
-3.7659999999999996,8.904,0.9029999999999999,-0.24699999999999997,0.18199999999999997,0.09000000000000012,0.0
-4.148999999999999,7.435,3.8649999999999998,0.10299999999999998,-0.35200000000000004,-0.09200000000000001,0.0
-1.7600000000000002,8.827,2.29,-0.47700000000000004,0.20800000000000002,0.11300000000000003,0.0
-2.678,8.943000000000001,1.426,-0.06399999999999999,-0.10400000000000001,0.016999999999999998,0.0
-3.5759999999999996,7.909000000000001,3.029,0.04799999999999996,-0.417,-0.122,0.0
-2.808,7.7010000000000005,4.245,-0.11600000000000002,-0.03,-0.04000000000000001,0.0
-1.584,6.397,-6.379,-0.37499999999999994,-0.10000000000000006,-0.06800000000000003,1.0
-2.456,8.353,3.864,-0.24999999999999994,0.251,0.05900000000000004,0.0
-3.136,7.716000000000001,3.8840000000000003,-0.10500000000000001,0.16499999999999998,0.027000000000000017,0.0
-2.132,8.929,2.95,-0.317,-0.024,0.06599999999999999,0.0
-3.5980000000000003,7.772,3.7299999999999995,-0.29799999999999993,0.05299999999999998,0.045000000000000116,0.0
-2.599,6.218999999999999,-5.963,-0.18499999999999997,-0.09800000000000006,-0.04400000000000002,1.0
-2.799,8.248999999999999,3.6119999999999997,-0.24,0.27399999999999997,0.11099999999999999,0.0
-3.1919999999999997,8.988,3.0789999999999997,0.047999999999999925,-0.24200000000000008,-0.14000000000000004,0.0
-4.358,7.661,2.104,0.09600000000000006,-0.25500000000000017,-0.313,1.0
-2.5919999999999996,6.9239999999999995,2.2689999999999997,-0.36,0.024999999999999977,0.33100000000000007,0.0
-2.7030000000000003,7.488000000000001,3.401,-0.06300000000000003,0.01699999999999999,-0.284,0.0
-3.051,7.598999999999999,2.67,-0.288,0.04600000000000003,0.2750000000000001,0.0
-2.826,7.468000000000001,4.6899999999999995,-0.343,-0.06499999999999999,0.05400000000000001,0.0
-1.544,9.399000000000001,0.943,0.003000000000000022,-0.31,0.1560000000000001,0.0
-3.7849999999999993,8.909,-2.385,-0.07100000000000004,0.03799999999999996,-0.033,1.0
-3.159,7.432,-0.9109999999999999,0.05200000000000003,0.05599999999999994,0.131,1.0
-2.618,8.283,3.6989999999999994,0.06800000000000002,-0.10900000000000003,-0.14899999999999997,0.0
-5.1259999999999994,5.723000000000001,-6.09,0.18,-0.183,-0.258,0.0
1.5219999999999998,4.154,2.903,0.26099999999999995,0.23099999999999996,-0.646,1.0
-3.6390000000000007,8.613000000000001,1.106,0.197,-0.18700000000000003,-0.15799999999999986,0.0
-2.63,8.936,1.433,-0.14100000000000001,-0.028999999999999988,0.026000000000000002,0.0
-3.374,7.491,3.0900000000000003,-0.53,0.545,0.336,0.0
-2.7529999999999997,8.925,-2.6100000000000003,0.26499999999999996,-0.8089999999999999,0.201,1.0
-2.134,8.953,2.1310000000000002,-0.143,-0.10600000000000001,0.024999999999999998,0.0
-2.416,8.967,1.7890000000000001,-0.077,-0.06499999999999999,-0.027000000000000003,0.0
-3.0959999999999996,7.217999999999999,4.452,-0.06399999999999997,-0.03200000000000001,-0.1699999999999999,0.0
-4.225,7.589999999999999,2.762,0.14500000000000002,-0.014000000000000018,-0.007999999999999893,0.0
-6.208,3.364,0.41999999999999993,0.24900000000000005,0.19799999999999993,-0.539,1.0
-4.182,7.19,3.049,-0.05999999999999998,-0.057999999999999996,-0.11699999999999991,0.0
-2.9989999999999997,7.822999999999999,4.714,0.030000000000000016,0.11899999999999995,-0.16899999999999998,0.0
-2.887,8.298,4.09,-0.02699999999999999,0.09599999999999996,-0.039999999999999966,0.0
-0.15899999999999997,9.204,2.102,-0.43200000000000005,-0.17,0.12900000000000011,0.0
-7.075,3.14,-0.8009999999999999,-0.2119999999999999,0.2549999999999999,0.133,1.0
-3.252,7.7,3.914,-0.12299999999999996,-0.1450000000000001,-0.010000000000000005,1.0
-7.367,4.715999999999999,-7.593000000000001,0.257,-0.11699999999999995,0.023999999999999987,0.0
-2.545,7.441,4.3229999999999995,0.011000000000000001,-0.441,0.04400000000000004,0.0
-2.786,7.985000000000001,3.268,-0.20200000000000004,0.17899999999999994,0.07300000000000004,0.0
-2.6900000000000004,8.674,3.18,-0.028000000000000014,0.15399999999999997,0.09700000000000007,0.0
-2.331,6.63,5.034999999999999,0.087,0.07100000000000002,0.17000000000000004,0.0
-2.133,8.581,3.0,-0.076,-0.05899999999999998,-0.027999999999999997,0.0
-3.6719999999999997,8.008,3.5699999999999994,-0.05700000000000004,-0.14900000000000005,0.003999999999999994,0.0
-2.455,8.943000000000001,3.8600000000000003,0.21999999999999992,-0.2250000000000001,-0.34700000000000003,0.0
-2.527,7.723000000000001,4.204000000000001,-0.08099999999999999,0.13899999999999996,-0.02699999999999997,0.0
-0.817,8.277000000000001,3.822,-0.41200000000000003,-0.018000000000000026,-0.09199999999999989,0.0
-3.621,7.672,4.407,-0.176,-0.055000000000000035,0.032000000000000035,0.0
-3.056,8.171000000000001,3.818,0.18,-0.22700000000000004,-0.265,0.0
-4.99,5.052999999999999,5.7299999999999995,0.03800000000000005,-0.45600000000000007,-0.26599999999999996,1.0
-3.064,7.481,3.9699999999999998,0.14300000000000002,-0.277,-0.213,0.0
-1.438,8.953999999999999,2.27,-0.03100000000000002,-0.12900000000000006,-0.05500000000000001,1.0
2.271,5.393,0.921,-0.263,-0.219,0.466,1.0
-2.007,8.75,2.632,-0.08600000000000001,0.040000000000000015,-0.05700000000000001,0.0
-2.697,7.547,4.043,-0.09,0.192,-0.03099999999999999,0.0
-4.309,6.840999999999999,4.2,-0.093,-0.17800000000000002,-0.013000000000000017,0.0
-2.879,7.791999999999999,3.9269999999999996,-0.015000000000000003,0.144,-0.132,0.0
-2.55,8.302,3.9939999999999998,-0.052000000000000005,0.09599999999999995,-0.05199999999999997,0.0
-2.686,8.878,2.241,0.06799999999999999,-0.06899999999999999,-0.027000000000000003,0.0
-2.9579999999999997,7.924000000000001,3.806,0.045,-0.35400000000000004,-0.276,0.0
-2.2169999999999996,7.603,4.5280000000000005,-0.285,-0.072,-0.03200000000000001,0.0
-2.1260000000000003,8.493,2.743,-0.015999999999999973,0.344,-0.11199999999999988,0.0
-2.43,8.035,3.6340000000000003,-0.29,0.233,0.2200000000000001,0.0
-2.919,8.052000000000001,3.285,-0.433,0.321,0.236,0.0
-5.389,7.733,1.797,-0.192,-0.10999999999999999,0.08099999999999999,0.0
-2.491,7.892,3.7030000000000003,0.376,-0.836,-0.21899999999999994,0.0
-3.277,7.691,4.0969999999999995,-0.061,0.0009999999999999898,-0.036,0.0
-3.5170000000000003,6.406999999999999,-2.6740000000000004,0.7759999999999999,-0.29000000000000004,-0.078,1.0
-2.314,8.25,2.9970000000000003,0.009999999999999997,-0.185,-0.015999999999999997,0.0
-2.5100000000000002,7.867,4.16,-0.11199999999999999,-0.04,-0.023000000000000007,0.0
5.0329999999999995,7.195,1.024,-0.34199999999999997,-0.027000000000000003,-0.341,1.0
-2.2830000000000004,8.694999999999999,2.792,-0.071,-0.030999999999999993,-0.032,0.0
-3.6630000000000003,7.981999999999999,3.0780000000000003,-0.579,0.602,0.33799999999999997,0.0
1.2109999999999999,4.122,2.2369999999999997,0.09399999999999994,-0.22200000000000003,0.083,1.0
-3.2960000000000003,7.972999999999999,4.221,-0.341,0.512,0.341,0.0
-2.168,8.790000000000001,2.651,-0.08199999999999999,-0.02599999999999999,-0.022000000000000002,0.0
-2.6879999999999997,7.6530000000000005,3.0149999999999997,-0.429,0.45199999999999996,0.198,0.0
1.6700000000000004,3.5550000000000006,2.493,0.14199999999999996,-0.046000000000000055,-0.38,1.0
-6.205,3.912,2.215,-0.05699999999999992,0.001999999999999902,0.28200000000000003,1.0
-1.7570000000000001,8.697999999999999,2.9619999999999997,0.07400000000000002,0.33799999999999997,-0.007999999999999893,0.0
-4.109,7.242,4.064,-0.094,-0.22900000000000004,-0.06400000000000002,0.0
-4.606999999999999,6.269,4.994,0.048000000000000036,-0.017999999999999988,0.21900000000000003,0.0
-2.7939999999999996,7.1819999999999995,4.642,-0.031000000000000007,-0.16699999999999998,-0.09,0.0
-3.5730000000000004,5.489,1.6149999999999998,0.24400000000000005,-0.2250000000000001,-0.4710000000000001,1.0
-2.182,8.421000000000001,1.185,-0.597,0.584,0.42400000000000004,0.0
-2.181,8.773,3.893,0.032000000000000015,0.06099999999999994,-0.14599999999999996,0.0
-3.2600000000000002,7.904000000000001,3.5740000000000003,-0.02699999999999997,-0.12200000000000003,0.012000000000000104,0.0
-1.668,8.977,1.357,-0.071,-0.061999999999999986,0.11600000000000003,0.0
-2.617,8.047,3.8040000000000007,-0.10799999999999998,-0.05400000000000001,-0.023999999999999883,0.0
-3.3129999999999997,8.700999999999999,3.534,0.23200000000000007,-0.09700000000000006,-0.462,0.0
-2.131,8.7,2.586,-0.11199999999999999,-0.019999999999999993,-0.048,0.0
-2.474,8.565,2.5260000000000002,-0.22399999999999998,-0.045000000000000026,0.1170000000000001,0.0
-2.303,8.639,3.4170000000000003,-0.24299999999999997,0.44799999999999984,0.031000000000000007,1.0
-4.973999999999999,7.188,2.709,0.05400000000000003,-0.07100000000000002,-0.2339999999999999,0.0
-1.2890000000000001,6.132,5.0329999999999995,-0.21200000000000002,0.11900000000000002,0.676,0.0
-3.4530000000000003,7.160000000000001,4.543,-0.317,-0.217,-0.025000000000000012,0.0
-4.4590000000000005,6.342,4.644,-0.22499999999999995,0.14099999999999996,-0.038999999999999875,0.0
-4.193,6.368,5.894,0.036000000000000004,-0.344,-0.012999999999999979,0.0
-0.02900000000000009,4.476000000000001,2.597,0.17199999999999996,0.17699999999999994,-0.538,1.0
-2.19,8.794,2.6279999999999997,-0.094,0.014000000000000007,-0.029000000000000005,0.0
-3.0770000000000004,9.009,0.321,-0.07899999999999999,-0.05700000000000003,0.07700000000000012,0.0
-2.7969999999999997,8.447999999999999,2.7689999999999997,-0.23600000000000004,0.45,0.050999999999999976,0.0
-2.134,9.193000000000001,0.33199999999999996,-0.259,-0.14000000000000004,0.12200000000000014,0.0
-2.754,8.561,3.718,0.075,-0.09800000000000006,-0.16399999999999998,0.0
5.623,6.436,0.865,-0.294,-0.007999999999999998,-0.30900000000000005,1.0
-1.641,9.477,1.1149999999999998,-0.10700000000000001,0.12200000000000003,0.08100000000000003,0.0
-2.5959999999999996,8.142999999999999,2.887,-0.09500000000000006,0.13099999999999995,-0.08100000000000003,0.0
-0.2620000000000001,5.479,3.336,-0.20400000000000001,-0.31100000000000005,0.17400000000000002,1.0
-2.9579999999999997,7.005000000000001,4.8759999999999994,-0.13699999999999998,0.20600000000000002,0.18699999999999997,0.0
-2.783,7.906999999999999,3.9440000000000004,0.05600000000000001,0.16099999999999998,-0.176,0.0
-2.973,8.495999999999999,4.341,-0.009000000000000011,0.27199999999999996,-0.04799999999999997,0.0
-5.563000000000001,6.678,1.7730000000000001,0.08300000000000002,-0.013000000000000045,-0.027000000000000003,1.0
-2.152,8.905,2.203,-0.125,-0.009999999999999985,0.009999999999999998,0.0
-4.272,6.616,4.617,-0.23399999999999999,0.10599999999999998,-0.026999999999999875,0.0
6.555,5.756,0.737,-0.25999999999999995,-0.012999999999999998,-0.25100000000000006,1.0
-2.075,8.142999999999999,1.241,-0.6699999999999999,0.6929999999999998,0.41000000000000003,0.0
-2.8220000000000005,7.1579999999999995,2.998,-0.23200000000000004,-0.23700000000000004,0.30000000000000004,1.0
-1.384,9.404,0.721,-0.073,-0.02699999999999999,0.030000000000000016,0.0
-2.9699999999999998,7.2829999999999995,3.9299999999999997,0.173,-0.10600000000000005,-0.257,0.0
-3.121,7.367999999999999,3.7800000000000002,-0.119,0.023999999999999987,0.005999999999999983,0.0
-1.874,8.434000000000001,3.4299999999999997,-0.21899999999999994,-0.056000000000000036,0.1520000000000001,0.0
-3.188,7.173,4.446,-0.05499999999999997,0.044,-0.1909999999999999,0.0
-3.289,5.393,6.409000000000001,-0.06199999999999998,-0.13999999999999999,0.30900000000000005,0.0
-3.1689999999999996,7.275999999999999,3.9200000000000004,-0.041999999999999996,-0.09800000000000006,-0.04699999999999998,0.0
-1.567,6.7780000000000005,6.949000000000001,-0.04199999999999998,0.28800000000000003,0.13600000000000004,0.0
-2.975,8.079,4.269,0.26399999999999996,-0.30500000000000005,-0.308,0.0
-4.404000000000001,7.375,3.522,0.266,-0.23200000000000004,-0.20499999999999985,0.0
-4.95,5.197000000000001,5.836,0.019000000000000038,-0.2840000000000001,-0.205,1.0
-3.7020000000000004,7.558,3.341,-0.333,0.20699999999999993,0.293,0.0
-2.79,8.242999999999999,1.839,-0.257,-0.437,0.05400000000000012,0.0
-2.7840000000000003,8.22,3.5149999999999997,0.05400000000000001,-0.09400000000000001,-0.29500000000000004,0.0
-1.768,6.624,4.874,-0.194,-0.05299999999999998,0.43200000000000005,0.0
-1.8940000000000001,9.402,1.6969999999999998,0.009999999999999998,-0.086,0.17800000000000005,0.0
-2.7880000000000003,8.806999999999999,1.682,-0.091,-0.016999999999999994,-0.06200000000000001,0.0
1.677,9.249,1.5959999999999999,-0.293,0.162,-0.46699999999999997,1.0
-3.6659999999999995,6.958,-3.162,-0.22499999999999995,-0.13400000000000006,-0.013000000000000029,1.0
-2.1239999999999997,8.378,0.8559999999999999,-0.33399999999999996,0.348,0.055000000000000014,0.0
-2.694,9.025,1.372,-0.061,-0.08299999999999999,-0.006999999999999999,0.0
-3.3689999999999998,8.007,3.4850000000000003,0.1509999999999999,-0.6220000000000001,-0.24200000000000005,0.0
-2.6529999999999996,8.179,3.993,0.185,0.06499999999999995,-0.23199999999999998,0.0
-2.7199999999999998,7.734999999999999,4.532,-0.02599999999999999,0.18199999999999997,-0.08499999999999996,0.0
-3.2060000000000004,8.273,4.158,-0.05899999999999998,0.12299999999999996,-0.07899999999999999,0.0
-1.4969999999999999,7.400000000000001,3.6720000000000006,0.11900000000000002,-0.05600000000000012,-0.22799999999999998,1.0
-2.798,7.308,3.992,0.20600000000000002,-0.695,-0.15699999999999997,0.0
-1.936,9.394,1.9949999999999999,0.016999999999999998,-0.024999999999999984,0.11500000000000003,0.0
-1.765,8.415000000000001,3.3980000000000006,-0.05700000000000001,-0.441,-0.11999999999999997,0.0
-4.420999999999999,6.961,4.233,-0.027000000000000003,-0.13200000000000003,-0.031000000000000017,0.0
-2.496,8.834999999999999,1.8960000000000001,-0.123,-0.05599999999999998,0.008999999999999998,0.0
-3.146,7.557,3.9489999999999994,0.044,-0.17500000000000004,-0.14599999999999996,0.0
-1.8130000000000002,6.220000000000001,2.946,-0.039000000000000014,-0.504,0.325,1.0
-3.2370000000000005,8.141000000000002,3.6799999999999997,0.168,-0.31999999999999995,-0.263,0.0
-1.251,8.95,2.0629999999999997,-0.049,-0.018999999999999982,-0.04699999999999995,0.0
-6.897,4.763,-7.917999999999999,0.7100000000000001,-0.712,-0.33399999999999996,0.0
-3.004,8.153,4.11,0.09499999999999995,-0.16500000000000004,-0.35000000000000003,0.0
-3.17,7.078,2.6849999999999996,0.22300000000000003,0.5079999999999999,-0.12200000000000003,1.0
-2.138,9.128,2.846,-0.03699999999999999,0.16,0.28500000000000003,0.0
-2.8840000000000003,8.428,3.475,0.10099999999999994,-0.24300000000000005,-0.32900000000000007,0.0
-3.0509999999999997,8.903,4.094,-0.009000000000000008,0.10299999999999998,0.06500000000000003,0.0
-2.6149999999999998,7.919,3.4869999999999997,0.040999999999999946,-0.07900000000000007,-0.14399999999999996,0.0
-2.021,8.545,2.557,0.005999999999999994,-0.20400000000000001,0.014000000000000004,0.0
-3.7089999999999996,7.979000000000001,2.813,0.248,-0.8310000000000001,-0.362,0.0
-3.055,7.836000000000001,4.112,0.01699999999999998,0.05599999999999994,-0.123,0.0
-3.055,6.7219999999999995,5.503,0.031999999999999994,-0.4640000000000001,-0.258,0.0
-3.16,8.321000000000002,4.737,-0.00899999999999998,0.14099999999999996,-0.189,0.0
-2.1510000000000002,8.892999999999999,2.2350000000000003,-0.098,-0.05499999999999998,-0.029000000000000005,0.0
-2.808,8.911,1.6969999999999998,-0.06499999999999999,-0.032999999999999995,-0.034,0.0
-3.6,7.6450000000000005,3.939,-0.047,-0.11100000000000003,-0.08400000000000002,0.0
-2.644,7.8629999999999995,4.034,0.005999999999999959,-0.25000000000000006,-0.186,0.0
-1.502,9.359,0.9339999999999999,-0.48,0.12700000000000006,0.032000000000000015,0.0
-2.754,7.644000000000001,3.6159999999999997,-0.125,0.024999999999999946,-0.08199999999999999,0.0
-3.1189999999999998,7.058,-2.878,-0.23599999999999993,-0.06300000000000007,0.01599999999999997,1.0
-3.4979999999999998,6.545,5.081,-0.24899999999999994,-0.476,-0.213,0.0
-2.8040000000000003,7.8,3.1380000000000003,-0.21000000000000002,0.242,0.191,0.0
-2.524,4.946,1.7269999999999999,0.02699999999999997,-0.30500000000000005,0.19800000000000004,1.0
-2.5060000000000002,8.014,3.303,-0.06599999999999998,-0.067,0.01200000000000011,0.0
-3.225,7.947999999999999,3.322,0.014000000000000045,0.2129999999999999,0.10400000000000001,1.0
-2.675,8.507000000000001,3.746,0.131,0.08599999999999994,-0.25099999999999995,0.0
-2.057,8.635,2.979,-0.14500000000000002,0.008000000000000012,0.0069999999999999975,0.0
-3.342,7.680999999999999,3.739,-0.31999999999999995,0.11099999999999995,0.010000000000000116,0.0
-1.759,8.431000000000001,3.2969999999999997,-0.07,-0.4109999999999999,-0.11499999999999996,0.0
-4.652,6.311999999999999,4.713,-0.209,0.15,-0.04599999999999987,0.0
-3.3229999999999995,6.67,5.486,-0.076,-0.42000000000000004,-0.22000000000000003,0.0
-3.2090000000000005,8.393,4.159,0.11599999999999995,-0.03800000000000005,-0.18100000000000002,0.0
-2.048,6.662999999999999,4.988,0.11399999999999999,0.043000000000000024,0.14100000000000007,0.0
-1.956,8.916,2.7220000000000004,0.399,-0.43199999999999994,-0.579,0.0
-0.44899999999999984,6.656000000000001,-5.946,-0.5449999999999999,-0.20000000000000004,0.017000000000000005,1.0
-3.6199999999999997,7.133,3.88,-0.18999999999999997,0.076,0.15300000000000008,0.0
-3.7119999999999997,7.475,3.8989999999999996,-0.063,-0.163,-0.08600000000000003,0.0
-2.92,7.734,3.2590000000000003,-0.155,0.13199999999999995,0.019999999999999993,0.0
-2.6369999999999996,8.197,4.2,-0.03200000000000004,-0.00900000000000003,-0.06600000000000003,0.0
-2.8369999999999997,8.274,4.026999999999999,0.177,0.07799999999999994,-0.22000000000000003,0.0
-2.097,8.997,2.093,-0.177,-0.09699999999999999,0.040999999999999995,0.0
-3.7920000000000003,8.756,-2.479,-0.046000000000000034,0.03699999999999996,-0.018000000000000002,1.0
-2.3099999999999996,8.507000000000001,3.807,-0.07999999999999999,0.11999999999999995,0.009000000000000044,0.0
-2.09,8.149,-1.6990000000000003,-0.531,0.24299999999999997,-0.021999999999999964,1.0
-3.393,8.123999999999999,3.7769999999999997,0.040999999999999995,0.07199999999999998,-0.09,0.0
-2.75,7.890000000000001,3.3920000000000003,0.15099999999999994,-0.15100000000000002,-0.16000000000000003,0.0
-1.627,9.290000000000001,1.222,-0.052000000000000005,-0.032999999999999974,0.04300000000000003,0.0
-1.932,9.053,3.248,0.037999999999999964,-0.21500000000000002,-0.217,0.0
-2.529,7.878,3.463,-0.16500000000000006,0.24499999999999994,0.02900000000000001,0.0
-3.101,7.999,3.8040000000000007,0.12099999999999995,-0.14,-0.14600000000000002,0.0
-4.414,6.978,4.171,-0.022999999999999996,-0.15100000000000002,-0.029000000000000015,0.0
-2.2649999999999997,8.433,4.268,0.092,0.22599999999999998,-0.184,0.0
-2.121,7.988999999999999,3.3370000000000006,-0.19,0.05500000000000001,0.034999999999999996,0.0
-3.3200000000000003,7.839,3.808,-0.15499999999999997,-0.08500000000000005,-0.06599999999999998,0.0
-3.2,7.51,4.188,0.03400000000000002,-0.016,-0.23699999999999988,0.0
-2.662,8.946,1.3519999999999999,-0.053000000000000005,-0.097,-0.026000000000000002,0.0
-3.499,8.864,0.9620000000000001,-0.027999999999999987,0.11999999999999997,0.05600000000000012,0.0
-1.841,4.1450000000000005,-9.079,-0.0910000000000001,0.07999999999999993,-0.496,0.0
-1.6199999999999999,9.343,0.45,-0.13899999999999998,-0.10499999999999998,-0.06999999999999999,0.0
-2.8689999999999998,8.619,3.411,0.06500000000000002,-0.011000000000000005,-0.10600000000000001,0.0
-2.9859999999999998,8.981,3.8049999999999997,0.07599999999999996,0.0009999999999999233,-0.20299999999999999,0.0
-2.62,8.025,3.502,0.03900000000000001,-0.17600000000000002,-0.14099999999999996,0.0
-3.53,7.717999999999999,4.1080000000000005,-0.449,0.6,0.4250000000000001,0.0
-1.9709999999999996,8.59,0.933,-0.522,0.594,0.41,0.0
1.9339999999999997,2.3939999999999997,3.373,0.027999999999999987,-0.32,-0.20999999999999996,1.0
-4.073,7.587999999999999,2.8409999999999997,-0.4339999999999999,0.275,0.1920000000000001,0.0
-1.7150000000000003,5.9350000000000005,-1.827,0.25100000000000006,0.46399999999999997,-0.053000000000000026,1.0
-4.649,7.141,3.3299999999999996,-0.09899999999999996,0.11299999999999999,-0.0499999999999999,0.0
-2.687,8.133,3.746,-0.231,0.23700000000000002,0.179,0.0
-3.05,8.029,3.0569999999999995,0.08400000000000003,-0.271,0.1170000000000001,0.0
-2.609,8.653,1.953,-0.11100000000000002,0.04300000000000002,-0.044000000000000004,0.0
-2.2670000000000003,7.829000000000001,2.157,-0.553,0.5579999999999999,0.266,0.0
-2.557,7.574,4.226000000000001,-0.18499999999999997,-0.32599999999999996,-0.035999999999999886,0.0
-3.4989999999999997,9.731,2.504,0.23599999999999993,-0.6639999999999999,0.181,0.0
-2.67,8.408000000000001,3.2620000000000005,-0.22000000000000003,0.43499999999999994,0.101,0.0
-2.71,8.84,1.6560000000000001,-0.063,-0.051000000000000004,-0.03400000000000001,0.0
-2.251,8.895,-3.053,0.30199999999999994,-1.083,0.253,1.0
-0.248,9.169999999999998,1.98,-0.43000000000000005,-0.2,-0.06000000000000003,1.0
-1.435,7.518000000000001,4.446,0.20800000000000002,-0.09199999999999997,-0.12999999999999998,0.0
-4.513,6.687,3.3560000000000003,-0.035999999999999976,-0.131,-0.06999999999999991,0.0
-2.957,8.243,4.066,-0.328,0.43499999999999994,0.217,0.0
-2.804,8.029,3.279,0.04800000000000003,-0.31500000000000006,0.23000000000000012,0.0
-2.1919999999999997,8.219,-1.684,-0.488,0.496,-0.48100000000000004,1.0
-3.568,7.718999999999999,3.247,0.10300000000000005,0.10199999999999991,-0.14600000000000002,1.0
-3.066,8.9,1.397,-0.08099999999999999,-0.096,0.012,0.0
-2.287,8.147,2.989,-0.043000000000000003,-0.14699999999999996,0.0010000000000000022,0.0
-1.7549999999999997,8.413,2.883,0.08600000000000001,-0.01499999999999998,0.15600000000000006,0.0
-4.782,6.286,3.0140000000000002,-0.07300000000000004,-0.11300000000000003,0.07100000000000002,1.0
-1.8990000000000002,9.041,1.408,-0.033,-0.09799999999999999,0.22300000000000003,0.0
-3.557,6.846000000000001,4.704,-0.10999999999999999,-0.04399999999999999,0.086,0.0
-1.5830000000000002,6.054,5.145999999999999,-0.24699999999999997,0.14200000000000004,0.683,0.0
-4.508,7.098999999999999,3.4479999999999995,-0.07299999999999997,0.156,-0.11399999999999988,0.0
-3.585,7.3549999999999995,3.5119999999999996,-0.3980000000000001,0.533,0.28600000000000003,0.0
-2.552,7.653999999999999,4.419,-0.248,-0.023999999999999987,-0.013999999999999981,0.0
-3.133,8.501000000000001,3.4839999999999995,-0.08299999999999999,0.124,0.005999999999999994,0.0
-2.786,7.565,3.13,-0.18800000000000003,0.18199999999999997,0.06299999999999999,0.0
-7.257,2.572,-0.10000000000000005,0.17300000000000004,0.25299999999999995,-0.42300000000000004,1.0
-2.002,3.8190000000000004,-9.231,-0.0800000000000001,0.05599999999999994,-0.514,0.0
-3.252,8.491,3.845,-0.097,0.10699999999999998,0.013999999999999995,0.0
-3.946,7.828,4.0649999999999995,-0.22800000000000004,-0.044000000000000025,0.15899999999999997,0.0
-3.9769999999999994,7.816,2.1630000000000003,-0.394,-0.34800000000000003,0.268,0.0
-3.274,7.823,3.275,0.03600000000000003,-0.30400000000000005,0.2370000000000001,0.0
-1.541,8.455000000000002,3.138,-0.042,-0.03599999999999996,-0.03199999999999999,0.0
-1.814,8.432,3.4850000000000003,-0.251,0.158,0.048,0.0
-2.505,8.575999999999999,2.024,-0.093,-0.0029999999999999875,-0.014000000000000007,0.0
-3.082,8.657,3.5589999999999997,0.25000000000000006,-0.014000000000000063,-0.40499999999999997,0.0
-3.2049999999999996,7.601000000000001,3.3909999999999996,0.175,-0.559,-0.19999999999999993,0.0
-2.842,7.536000000000001,3.5769999999999995,-0.027000000000000014,-0.05200000000000001,-0.10800000000000001,0.0
-4.377000000000001,7.5760000000000005,2.782,-0.03899999999999997,-0.23800000000000004,0.12400000000000011,0.0
-2.209,7.761,3.718,-0.167,0.014000000000000007,-0.013999999999999995,0.0
-4.886,5.949,-6.212999999999999,-0.09700000000000002,-0.14399999999999996,-0.282,0.0
-2.541,8.459,4.424,0.03900000000000001,0.06499999999999995,-0.06699999999999998,0.0
-3.322,8.355999999999998,3.243,-0.281,0.614,0.27999999999999997,0.0
-3.1260000000000003,8.175,4.162999999999999,-0.278,0.43599999999999994,0.2,0.0
-2.8049999999999997,8.325,3.747,0.12199999999999997,0.06199999999999993,-0.24599999999999994,0.0
-3.8520000000000003,7.478,3.996,-0.018,-0.261,-0.13400000000000004,0.0
-2.718,8.373,4.108,-0.0060000000000000695,0.10099999999999995,-0.11500000000000002,0.0
-2.025,8.703,3.553,-0.39,-0.009999999999999998,0.03,0.0
-2.937,7.178999999999999,4.93,-0.282,-0.022999999999999993,0.035000000000000024,0.0
-3.5869999999999997,8.896,2.8230000000000004,0.19899999999999998,-0.735,-0.552,0.0
-2.723,8.145,2.817,-0.366,0.19799999999999995,0.19499999999999998,0.0
-2.674,8.099,3.4489999999999994,-0.177,-0.13700000000000004,0.08600000000000012,0.0
-2.207,8.128,4.125,-0.0009999999999999814,-0.13400000000000004,-0.08499999999999999,0.0
-2.045,8.631,3.027,-0.075,-0.038999999999999986,-0.017000000000000005,0.0
-2.412,8.418000000000001,3.2060000000000004,0.30599999999999994,-0.542,-0.30100000000000005,0.0
-3.118,7.828,3.7969999999999997,-0.17900000000000005,0.2899999999999999,-0.0030000000000000027,0.0
-3.121,7.316,4.2490000000000006,-0.393,0.42300000000000004,0.312,0.0
-2.973,7.05,4.711,0.06800000000000002,-0.042000000000000016,-0.15199999999999989,0.0
-4.298,7.667,1.9289999999999998,-0.388,-0.378,0.315,0.0
-3.117,8.376000000000001,2.787,-0.09800000000000002,0.044,-0.018999999999999996,0.0
-4.790000000000001,7.498,0.47800000000000004,0.11199999999999996,-0.018000000000000037,0.11500000000000002,1.0
-2.851,8.129000000000001,3.6109999999999998,0.004999999999999992,-0.03200000000000002,-0.038000000000000006,0.0
-1.8310000000000002,8.379999999999999,3.436,-0.11500000000000002,0.027000000000000017,0.02000000000000001,0.0
-3.681,7.891,4.13,-0.21600000000000003,0.03999999999999998,0.14099999999999996,0.0
-3.857,8.760000000000002,0.665,0.0020000000000000018,-0.08300000000000005,-0.12899999999999986,0.0
-5.356,5.021,-6.134,0.26,-0.47999999999999987,0.10700000000000003,0.0
-6.984999999999999,8.742,-2.498,0.39,0.087,-0.15299999999999997,0.0
-2.8950000000000005,8.305,3.803,-0.18400000000000002,0.16799999999999998,-0.01900000000000001,0.0
-1.9810000000000003,8.386,3.1470000000000002,2.7755575615628914e-17,0.306,-0.06599999999999986,0.0
-3.939,6.461999999999999,6.03,-0.351,0.37499999999999994,0.31199999999999994,1.0
-3.6239999999999997,5.779999999999999,-6.191000000000001,-0.30699999999999994,-0.15700000000000008,-0.048,1.0
-3.346,8.3,4.155,-0.06299999999999997,0.03699999999999996,-0.12199999999999997,0.0
-1.331,8.767999999999999,1.08,-0.06699999999999999,0.04400000000000002,-0.07199999999999998,0.0
-2.739,7.113000000000001,3.8920000000000003,0.11699999999999999,-0.573,-0.10399999999999995,0.0
-1.508,8.056000000000001,3.113,0.23100000000000004,0.16,-0.12399999999999993,0.0
-1.379,9.407,0.6359999999999999,-0.08,-0.017999999999999988,0.04000000000000002,0.0
-3.184,7.7170000000000005,3.347,-0.099,-0.03700000000000004,0.20999999999999996,0.0
-3.165,8.553,3.0189999999999997,0.09699999999999993,-0.23500000000000004,-0.11800000000000002,0.0
-4.884,4.909000000000001,-6.511999999999999,0.367,-0.38399999999999995,-0.087,0.0
-1.5909999999999997,8.947,1.0749999999999997,-0.15800000000000003,-0.23200000000000004,-0.032999999999999995,1.0
-1.5950000000000002,9.417,0.85,-0.06,-0.0019999999999999853,0.013000000000000017,0.0
-1.5699999999999998,6.311000000000001,3.146,-0.24300000000000002,-0.28700000000000003,0.24800000000000005,1.0
-2.2920000000000003,8.023,3.367,0.34900000000000003,-0.703,-0.11999999999999995,0.0
9.928999999999998,2.183,0.7290000000000001,-0.11800000000000002,-0.055999999999999994,-0.029000000000000047,1.0
-2.0919999999999996,8.762,2.677,-0.098,0.026000000000000002,-0.007999999999999998,0.0
-3.2399999999999998,7.5280000000000005,4.129,0.028000000000000025,-0.048,-0.22699999999999992,0.0
-2.918,7.281000000000001,4.9079999999999995,-0.042,-0.202,0.037000000000000026,0.0
-4.843,5.130000000000001,5.1129999999999995,-0.12499999999999993,-0.05800000000000007,-0.14200000000000002,1.0
-2.65,8.666,4.35,0.21000000000000002,-0.049000000000000064,-0.279,0.0
-3.5490000000000004,8.331999999999999,2.718,0.07399999999999995,-0.386,-0.161,0.0
-3.561,7.484,3.2050000000000005,-0.631,0.7390000000000001,0.492,0.0
-0.7390000000000001,5.7410000000000005,3.478,0.07199999999999998,0.033999999999999954,-0.11299999999999999,1.0
-3.249,8.241,2.7849999999999997,-0.41100000000000003,0.764,0.34299999999999997,0.0
-1.571,9.344,1.4769999999999999,0.03299999999999998,-0.050000000000000044,-0.0040000000000000105,1.0
-2.9739999999999998,8.211,4.584999999999999,0.22000000000000003,-0.09800000000000003,-0.258,0.0
-3.225,7.526999999999999,3.6659999999999995,-0.10600000000000001,-0.15900000000000006,-0.03999999999999998,0.0
-3.353,8.132000000000001,3.6369999999999996,-0.29100000000000004,0.34299999999999997,0.267,0.0
-2.148,8.383,4.112,-0.377,-0.026999999999999996,-0.023000000000000003,0.0
-0.9880000000000001,8.859,2.29,-0.32199999999999995,-0.07900000000000003,0.04900000000000011,0.0
-1.8,8.235,3.8449999999999998,-0.248,0.15,0.044,0.0
-2.811,7.589999999999999,4.747999999999999,0.04800000000000001,-0.099,0.034000000000000016,0.0
-1.1960000000000002,9.485000000000001,0.836,-0.06299999999999997,-0.23199999999999998,0.2180000000000001,0.0
-3.221,8.024000000000001,4.803,-0.059999999999999984,0.10799999999999994,-0.179,0.0
-2.283,8.972,1.7399999999999998,-0.144,-0.094,-0.089,0.0
-5.633,6.823,-5.264,0.06900000000000002,-0.296,-0.19099999999999998,0.0
-2.059,8.261,2.336,-0.26699999999999996,0.41999999999999993,0.098,1.0
1.089,4.023,2.183,0.08999999999999994,-0.09000000000000004,-0.07099999999999998,1.0
-4.57,7.139999999999999,-2.1420000000000003,-0.33399999999999996,-0.24800000000000008,-0.051000000000000024,1.0
-2.2990000000000004,8.264,3.469,-0.292,0.005999999999999961,0.0020000000000001197,0.0
-2.494,8.953999999999999,4.075,0.10699999999999994,-0.14400000000000007,-0.2740000000000001,0.0
-2.433,8.099,3.4480000000000004,-0.06699999999999992,-0.33600000000000013,-0.30200000000000005,1.0
-1.4259999999999997,9.016,1.906,0.010999999999999979,-0.04800000000000005,-0.006000000000000003,1.0
-6.681,7.997,-0.5299999999999999,-0.13999999999999999,0.041,-0.373,0.0
-2.788,8.757,4.343,-0.0070000000000000106,0.22599999999999998,-0.08999999999999998,0.0
-3.707,8.151,3.725,-0.23200000000000004,0.23899999999999993,0.265,0.0
-4.37,7.162999999999999,4.102,0.022,-0.23100000000000004,-0.039000000000000014,0.0
-3.069,6.603,5.305999999999999,0.0029999999999999944,-0.20199999999999996,-0.132,0.0
-3.821,8.001999999999999,3.561,-0.18500000000000003,0.23099999999999996,0.23399999999999999,0.0
-2.972,7.921000000000001,2.836,-0.292,0.04299999999999998,0.14699999999999996,0.0
-3.6730000000000005,7.683,3.167,0.0010000000000000286,-0.23300000000000004,0.21500000000000014,0.0
-0.004999999999999827,7.131,-6.197000000000001,-0.471,0.15099999999999997,-0.413,1.0
-2.395,8.175999999999998,2.5300000000000002,-0.3309999999999999,0.3419999999999999,0.121,1.0
-2.7190000000000003,7.628,4.611,0.039,-0.076,0.03100000000000002,0.0
-3.211,7.747,2.939,0.095,-0.13800000000000004,-0.20700000000000002,0.0
-2.58,8.323,3.5340000000000003,0.08400000000000003,-0.11100000000000002,-0.366,0.0
-4.766,6.605000000000001,3.147,-0.10999999999999999,-0.07299999999999998,0.005000000000000092,0.0
-3.9199999999999995,7.154999999999999,3.6310000000000002,0.546,-1.522,-0.8009999999999999,0.0
-2.9130000000000003,9.322,2.057,-0.6869999999999999,0.5509999999999999,0.517,0.0
-3.871,8.302,2.644,-0.483,0.711,0.15399999999999997,0.0
-3.6100000000000003,6.692,5.077,0.09600000000000004,0.11599999999999999,-0.011999999999999891,0.0
-3.3120000000000003,7.792999999999999,3.875,-0.082,-0.08600000000000005,-0.13399999999999998,0.0
-2.9400000000000004,8.756,3.989,0.2799999999999999,-0.21500000000000002,-0.263,0.0
-2.038,8.758,2.498,-0.08800000000000001,-0.029999999999999992,-0.05600000000000001,0.0
-2.696,7.802,3.4859999999999998,-0.11999999999999997,-0.006000000000000005,0.02100000000000011,0.0
-2.82,5.979,2.211,0.221,-0.06600000000000009,-0.505,1.0
-2.862,7.4799999999999995,4.793,-0.319,-0.094,0.06000000000000002,0.0
-3.4769999999999994,6.577,5.205,-0.10299999999999995,0.021999999999999992,0.006000000000000111,0.0
-2.623,7.936,4.3629999999999995,0.17700000000000002,0.003999999999999953,-0.175,0.0
-2.754,8.83,3.078,-0.02900000000000002,-0.10100000000000002,-0.15299999999999997,0.0
-3.9880000000000004,7.450999999999999,-0.10800000000000001,-0.07799999999999996,-0.022000000000000065,0.209,1.0
-2.698,8.300999999999998,3.2730000000000006,-0.23000000000000004,0.345,0.11200000000000002,0.0
-2.6390000000000002,8.352,3.2050000000000005,-0.11699999999999995,0.021999999999999888,0.031,1.0
-1.409,9.402000000000001,0.7669999999999999,-0.057999999999999996,-0.0029999999999999866,-0.013999999999999985,0.0
-3.138,9.0,-2.495,0.01699999999999997,-0.5349999999999999,0.253,1.0
-2.459,8.722,2.004,-0.10500000000000001,0.01700000000000002,-0.03600000000000001,0.0
-2.293,8.793000000000001,2.677,-0.053000000000000005,-0.040999999999999995,-0.028000000000000004,0.0
-1.2439999999999998,6.595000000000001,5.367,0.12800000000000006,-0.372,0.0030000000000000027,0.0
-2.7720000000000002,8.231,4.183999999999999,-0.016000000000000014,0.20299999999999999,-0.028999999999999977,0.0
-2.557,8.557,4.345000000000001,-0.034999999999999996,0.07399999999999994,-0.04799999999999998,0.0
-3.53,7.978,4.166,-0.259,0.09699999999999998,0.15799999999999997,0.0
-1.951,9.12,1.508,-0.019,-0.10799999999999998,0.23900000000000002,0.0
-4.4799999999999995,9.974,2.496,0.15199999999999997,-0.517,0.11500000000000002,0.0
-2.6670000000000003,7.92,3.088,-0.05400000000000001,-0.03200000000000002,-0.05500000000000001,0.0
-3.155,7.480000000000001,4.162999999999999,-0.083,0.175,0.16799999999999998,0.0
-1.317,8.85,1.3679999999999999,-0.009999999999999998,0.029000000000000026,-0.13999999999999996,0.0
-1.8370000000000002,8.337,3.7119999999999997,-0.259,0.15399999999999997,0.049,0.0
-2.7169999999999996,8.159,3.9560000000000004,-0.198,0.30099999999999993,0.08900000000000004,0.0
-3.114,7.736,3.6720000000000006,-0.174,0.07699999999999994,-0.03399999999999999,0.0
-3.529,6.731999999999999,2.621,-0.33599999999999997,-0.15500000000000003,0.24900000000000003,0.0
2.4909999999999997,4.093999999999999,3.3340000000000005,-0.010000000000000026,-0.37100000000000005,0.09500000000000001,1.0
-1.6620000000000001,7.6930000000000005,4.331,-0.277,-0.07400000000000002,-0.1319999999999999,0.0
-4.42,6.364000000000001,3.118,-0.07800000000000003,-0.09500000000000003,0.033000000000000015,1.0
-1.9280000000000002,8.931000000000001,-0.7290000000000001,0.011999999999999966,-0.5660000000000001,0.10400000000000001,1.0
-3.1049999999999995,8.011,3.604,-0.098,0.07399999999999998,0.05499999999999999,0.0
-1.9490000000000003,8.459999999999999,3.0389999999999997,-0.06399999999999993,-0.4660000000000001,-0.24800000000000005,1.0
-5.218999999999999,6.103000000000001,5.993,0.09000000000000002,-0.33999999999999997,-0.06199999999999998,0.0
-2.805,8.497,3.006,-0.18500000000000005,0.30199999999999994,0.14999999999999997,0.0
-3.4539999999999997,7.444,3.7559999999999993,-0.002999999999999997,-0.10800000000000001,-0.08600000000000001,0.0
-3.3609999999999998,7.835000000000001,2.7039999999999997,-0.31900000000000006,0.27499999999999997,0.183,0.0
-4.061000000000001,8.789,0.5810000000000001,-0.087,-0.04600000000000003,-0.05299999999999988,0.0
-5.25,6.095000000000001,2.428,-0.07699999999999994,-0.004000000000000082,-0.020999999999999998,1.0
-1.536,9.325999999999999,1.921,-0.005000000000000002,-0.08199999999999999,-0.018999999999999965,0.0
-5.087999999999999,6.714,6.172,0.181,-0.359,-0.088,0.0
-2.8,8.177,3.851,-0.04800000000000004,-0.13400000000000004,-0.06400000000000003,0.0
-2.6870000000000003,8.951,1.4769999999999999,-0.05600000000000001,-0.091,0.0049999999999999975,0.0
-3.003,7.394,4.353,-0.14199999999999996,0.081,0.0530000000000001,0.0
0.9359999999999999,4.865,2.904,-0.158,-0.43499999999999994,0.26999999999999996,1.0
-2.816,8.669,3.565,0.2109999999999999,-0.19700000000000006,-0.217,0.0
-2.211,7.380000000000001,4.74,-0.12899999999999998,-0.14999999999999997,-0.0699999999999999,0.0
-1.873,8.692,2.818,-0.366,0.13000000000000003,0.23600000000000004,0.0
-2.839,7.978,3.6730000000000005,-0.306,0.183,0.19,0.0
-2.732,8.629,3.847,0.15799999999999997,-0.037000000000000074,-0.25999999999999995,0.0
-1.9120000000000001,8.099,4.391,0.071,-0.03599999999999996,-0.21599999999999991,0.0
-2.9080000000000004,7.65,3.818,0.033000000000000015,0.07099999999999998,-0.1889999999999999,0.0
-2.3270000000000004,8.95,1.855,-0.07899999999999999,-0.07699999999999999,-0.0040000000000000036,0.0
-2.3099999999999996,7.9719999999999995,4.116,-0.12599999999999997,0.289,0.088,0.0
-2.462,7.716000000000001,4.12,-0.008999999999999994,-0.12000000000000006,-0.022999999999999975,0.0
-3.103,7.802000000000001,3.0,0.086,-0.06000000000000001,-0.189,0.0
-2.988,8.076,4.336,0.172,-0.09600000000000004,-0.25200000000000006,0.0
-0.191,8.693,3.3019999999999996,-0.52,-0.08500000000000003,-0.02099999999999989,0.0
-3.346,7.104000000000001,3.7640000000000002,-0.08700000000000002,-0.020000000000000066,-0.00799999999999998,0.0
-2.1849999999999996,8.716999999999999,-2.8020000000000005,0.413,-1.1700000000000002,0.35,1.0
-3.72,7.42,3.8909999999999996,0.012,-0.046,-0.09600000000000002,0.0
-4.71,7.514,1.001,0.03899999999999997,-0.05300000000000003,0.06800000000000002,1.0
-3.0309999999999997,8.169,3.504,0.094,-0.4680000000000001,-0.296,0.0
-5.178,7.517999999999999,2.078,-0.0009999999999999998,0.076,-0.11200000000000002,0.0
-2.8169999999999997,7.726999999999999,4.059,-0.05,0.16799999999999998,-0.098,0.0
-3.3489999999999993,9.145999999999999,-2.4850000000000003,-0.02600000000000003,-0.4,0.223,1.0
-2.177,8.705000000000002,2.8120000000000003,-0.077,-0.02499999999999999,-0.023000000000000003,0.0
-3.3230000000000004,7.786,3.599,-0.073,-0.13100000000000006,-0.12399999999999997,0.0
-1.377,9.263,0.884,-0.047,0.07200000000000002,0.004000000000000016,0.0
-3.6420000000000003,8.536,4.363,-0.30999999999999994,0.253,0.07800000000000001,0.0
-2.659,8.814,1.596,-0.083,-0.063,-0.03000000000000001,0.0
-2.536,8.859,3.114,-0.026000000000000002,-0.152,-0.022999999999999944,0.0
-2.57,8.151,3.386,-0.20599999999999996,-0.11300000000000003,0.06800000000000013,0.0
-5.287,6.7219999999999995,-0.45199999999999985,-0.43499999999999994,0.44299999999999995,0.27199999999999996,1.0
-1.754,9.039,2.4029999999999996,0.10399999999999998,-1.155,-0.327,0.0
-4.84,6.109,4.718999999999999,-0.174,0.143,-0.021999999999999874,0.0
-2.503,8.075,3.3600000000000003,-0.055000000000000014,0.06799999999999996,0.09899999999999998,0.0
-3.0330000000000004,7.5120000000000005,3.537,0.223,-0.4370000000000001,-0.278,0.0
-2.4779999999999998,8.882,1.916,-0.11699999999999999,-0.061999999999999986,0.0009999999999999953,0.0
-3.0839999999999996,7.763,4.458,-0.01899999999999999,0.12999999999999995,-0.11699999999999995,0.0
-3.283,8.303,2.654,0.021999999999999957,-0.051000000000000045,-0.09200000000000001,0.0
-2.636,8.233,3.457,-0.056999999999999926,0.0879999999999999,-0.12700000000000003,1.0
-7.437,2.6569999999999996,-1.67,-0.11399999999999992,0.24499999999999988,0.192,1.0
-2.85,8.226,3.03,-0.10700000000000001,-0.07300000000000004,0.009999999999999986,0.0
-1.612,8.445,3.319,-0.023,-0.441,-0.11499999999999996,0.0
-2.428,8.63,3.2440000000000007,0.162,-0.168,-0.44899999999999995,0.0
-2.7720000000000002,7.861,4.426,-0.19,0.07200000000000001,0.07700000000000001,0.0
-3.043,7.553999999999999,3.531,0.079,0.03999999999999998,0.02400000000000002,0.0
-3.5120000000000005,7.366,4.983,-0.479,0.938,0.257,1.0
-2.8939999999999997,7.178999999999999,4.865,-0.257,-0.06299999999999999,0.052000000000000025,0.0
-3.5849999999999995,8.315000000000001,1.0349999999999997,-0.06099999999999996,-0.49400000000000005,0.073,1.0
-2.478,8.853,2.452,-0.081,0.007000000000000006,-0.022,0.0
-4.826,6.205,4.7589999999999995,-0.11299999999999999,0.07599999999999997,-0.027999999999999876,0.0
-5.1770000000000005,6.464,6.132,0.16500000000000004,-0.34700000000000003,-0.13599999999999998,0.0
-2.888,7.111,4.665000000000001,-0.083,-0.030999999999999972,0.03500000000000001,0.0
-2.749,9.001,1.394,-0.06100000000000001,-0.07799999999999999,-0.016,0.0
-1.7009999999999998,8.333,3.2380000000000004,-0.238,0.172,0.01,0.0
-3.3309999999999995,7.6930000000000005,3.4809999999999994,0.06700000000000006,0.000999999999999912,-0.15700000000000003,1.0
-2.5680000000000005,8.787,1.627,-0.08399999999999999,-0.068,-0.028000000000000008,0.0
-3.058,8.428,3.7670000000000003,0.06700000000000002,-0.062000000000000055,-0.10899999999999999,0.0
-3.3850000000000002,7.339,4.162000000000001,-0.30999999999999994,-0.16599999999999998,-0.017000000000000008,0.0
-3.1580000000000004,8.336,3.7369999999999997,0.01800000000000001,-0.09300000000000005,-0.09399999999999997,0.0
-5.809,7.431,1.403,-0.10300000000000001,-0.002999999999999997,-0.06000000000000001,0.0
-2.7239999999999998,8.765,3.9599999999999995,0.101,0.12799999999999992,-0.22499999999999995,0.0
-2.232,8.958,1.861,-0.182,-0.040999999999999995,-0.004999999999999999,0.0
-2.0620000000000003,8.771,2.691,-0.098,0.030000000000000006,-0.013999999999999999,0.0
-3.0260000000000002,7.741,4.031000000000001,0.06500000000000002,0.15699999999999995,-0.22199999999999998,0.0
-4.013,6.181,-3.63,-0.313,-0.25600000000000006,-0.076,1.0
-6.65,3.8,1.409,0.051000000000000045,0.4129999999999999,-0.077,1.0
-4.577,6.660000000000001,3.28,-0.061999999999999965,-0.09699999999999999,-0.030999999999999906,0.0
-3.368,7.7700000000000005,3.493,0.041999999999999996,-0.03400000000000002,-0.08399999999999998,0.0
-3.7980000000000005,8.492,1.218,0.034000000000000016,-0.050000000000000024,-0.07699999999999989,0.0
-3.3890000000000002,8.356,1.063,-0.11899999999999995,-0.35500000000000004,0.144,1.0
-3.3129999999999997,8.049000000000001,3.1710000000000003,-0.227,0.16699999999999998,0.11199999999999999,0.0
-2.4699999999999998,8.739,1.9809999999999999,-0.10500000000000001,0.0020000000000000144,-0.039,0.0
-3.4300000000000006,7.3629999999999995,4.257,-0.02,-0.052000000000000005,-0.10700000000000001,0.0
-3.942,6.981,4.468999999999999,-0.296,0.12099999999999997,0.026000000000000127,0.0
-4.022,8.745999999999999,0.615,-0.15,0.000999999999999965,-0.004999999999999882,0.0
-3.9450000000000003,8.405,0.944,-0.06399999999999995,-0.5330000000000001,0.009999999999999998,1.0
-1.7420000000000002,9.398,1.907,-0.011000000000000001,0.01800000000000002,0.055000000000000035,0.0
-2.243,8.354000000000001,2.9219999999999997,0.06800000000000007,-0.39300000000000007,0.03999999999999998,1.0
-1.9740000000000002,8.472,3.438,-0.22599999999999998,-0.07400000000000004,0.07500000000000011,0.0
-3.3129999999999997,8.115,3.561,-0.10200000000000005,0.30199999999999994,0.141,0.0
-2.1260000000000003,8.514,2.884,-0.263,0.18999999999999997,-0.21599999999999997,0.0
-2.9539999999999997,7.963999999999999,3.175,-0.271,0.21600000000000003,0.149,0.0
-2.484,7.944,3.957,-0.15399999999999997,0.25899999999999995,0.077,0.0
-2.1399999999999997,8.937,2.178,-0.131,0.032000000000000015,0.008999999999999998,0.0
-6.566,3.8480000000000003,-2.157,-0.007999999999999934,-0.2610000000000001,0.168,1.0
-2.887,9.399000000000001,4.446,0.422,-0.20800000000000002,-0.321,0.0
-3.7659999999999996,7.953999999999999,2.999,0.11299999999999996,-0.668,-0.183,0.0
-2.431,7.831999999999999,4.081,0.15100000000000002,-0.35100000000000003,-0.24100000000000002,0.0
-1.387,5.454000000000001,-4.578,0.12900000000000006,0.3549999999999999,0.020999999999999984,1.0
-2.9330000000000003,8.959999999999999,1.438,-0.07100000000000001,-0.071,-0.015,0.0
-3.4910000000000005,8.049000000000001,3.1220000000000003,-0.5429999999999999,0.609,0.324,0.0
-2.285,8.943000000000001,2.1430000000000002,-0.098,-0.047999999999999994,-0.005000000000000003,0.0
-2.979,8.149,3.7230000000000003,0.15699999999999997,-0.307,-0.18600000000000003,0.0
-3.02,7.270999999999999,4.786,-0.279,-0.086,0.043000000000000024,0.0
-2.8619999999999997,7.639,2.948,-0.13799999999999998,0.08499999999999999,0.09600000000000002,0.0
-2.984,7.7379999999999995,3.5460000000000003,-0.088,-0.061000000000000054,-0.18599999999999997,0.0
-3.2,7.7829999999999995,4.345999999999999,0.076,-0.322,-0.19,0.0
-2.955,8.466,4.048,0.04699999999999999,0.074,-0.13499999999999998,0.0
-3.318,7.495,3.339,-0.17600000000000002,0.141,-0.066,0.0
-1.4349999999999998,9.341,1.4119999999999997,0.07099999999999998,-0.019000000000000045,-0.0020000000000000074,1.0
-2.505,7.906999999999999,4.3629999999999995,0.030000000000000006,0.015000000000000008,0.01800000000000002,0.0
-3.021,7.447,3.6620000000000004,0.17099999999999999,-0.38300000000000006,-0.279,0.0
-2.091,8.614,2.947,-0.158,0.014000000000000012,0.009999999999999997,0.0
-2.805,7.853,2.4579999999999997,-0.377,0.17900000000000005,0.26500000000000007,0.0
-3.2520000000000002,8.077,4.167,-0.43200000000000005,0.627,0.45500000000000007,0.0
-2.648,8.584999999999999,3.5460000000000003,0.2849999999999999,-0.3510000000000001,-0.258,0.0
-2.4810000000000003,8.845,1.798,-0.125,-0.060999999999999985,0.014999999999999994,0.0
-2.4639999999999995,7.513,3.132,-0.349,0.34199999999999997,0.11600000000000002,0.0
-4.537,5.071,5.789,-0.047999999999999966,-0.4000000000000001,-0.20400000000000001,1.0
-2.5309999999999997,7.288000000000001,4.59,-0.10599999999999996,0.089,-0.1329999999999999,0.0
-2.163,8.760000000000002,-2.641,0.285,-1.0150000000000001,0.131,1.0
-3.9090000000000003,6.798,-3.354,-0.282,-0.17800000000000007,-0.06100000000000003,1.0
-5.133,7.297,-0.998,-0.368,-0.26700000000000007,-0.02300000000000003,1.0
-2.0620000000000003,8.653,2.945,-0.078,-0.061999999999999986,-0.012999999999999998,0.0
-2.5809999999999995,8.47,3.657,-0.19299999999999998,0.18299999999999997,0.09100000000000005,0.0
-2.232,8.906,2.159,-0.11400000000000002,-0.093,0.005999999999999997,0.0
-1.703,8.491,3.224,-0.079,0.030000000000000027,0.014000000000000016,0.0
-1.857,9.058,1.247,-0.14300000000000002,0.06400000000000003,0.11700000000000003,0.0
-3.048,8.384,4.073,0.059,0.035999999999999935,-0.20599999999999996,0.0
-1.847,8.919,2.0309999999999997,-0.20400000000000001,0.11600000000000002,-0.033999999999999996,0.0
-2.469,8.298,3.2400000000000007,0.11599999999999992,-0.3040000000000001,-0.21700000000000003,0.0
-1.625,9.118,2.0220000000000002,-0.372,0.337,0.03300000000000001,0.0
-2.6390000000000002,8.953999999999999,1.395,-0.065,-0.14599999999999996,0.013000000000000001,0.0
-1.9760000000000002,6.375,5.1530000000000005,0.10100000000000002,-0.06899999999999998,0.221,0.0
-1.4700000000000002,8.714,0.8049999999999999,-0.099,0.08500000000000002,-0.05299999999999996,0.0
-2.968,7.706,2.863,0.11499999999999999,-0.13600000000000004,-0.304,0.0
-2.971,7.4300000000000015,3.7870000000000004,-0.085,0.005999999999999989,-0.03800000000000001,0.0
-2.4099999999999997,7.797,3.9779999999999993,-0.079,-0.195,-0.088,0.0
-4.322,7.324000000000001,3.711,0.316,-0.28700000000000003,-0.21399999999999988,0.0
0.36099999999999993,8.156,2.331,-0.404,-0.22800000000000004,-0.030000000000000034,1.0
-2.819,7.677000000000001,4.561,-0.188,0.003000000000000014,0.051000000000000024,0.0
-3.099,8.278,4.0920000000000005,-0.07999999999999999,0.20199999999999996,-0.08799999999999998,0.0
-3.09,7.867,3.819,-0.0010000000000000065,0.08299999999999992,-0.05699999999999996,0.0
-4.356,6.422,4.636,-0.23700000000000002,0.13299999999999998,-0.019999999999999872,0.0
-2.991,8.555000000000001,4.27,0.27099999999999996,-0.08700000000000004,-0.268,0.0
-3.368,8.775,1.2269999999999999,-0.305,0.213,0.09400000000000011,0.0
-2.636,8.620000000000001,3.9579999999999997,-0.22399999999999992,0.2719999999999999,0.09700000000000004,0.0
-4.386,8.235000000000001,2.496,-0.559,0.6869999999999999,0.19199999999999998,0.0
-3.815,5.755,5.665,-0.12099999999999997,-0.209,0.32700000000000007,0.0
-2.478,7.613999999999999,4.491,-0.023000000000000007,-0.07699999999999997,-0.19499999999999998,0.0
-2.546,8.029,3.348,-0.25,0.22599999999999998,0.031000000000000007,0.0
-3.0519999999999996,8.039,3.7310000000000003,-0.42399999999999993,0.8639999999999999,0.195,1.0
-2.336,8.907,2.149,-0.10600000000000001,0.017000000000000008,-0.044000000000000004,0.0
-3.2159999999999997,8.16,3.5199999999999996,-0.13000000000000006,0.40499999999999997,0.16599999999999998,0.0
-2.915,9.541,4.202,0.471,-0.24700000000000005,-0.404,0.0
-2.786,8.327,2.86,-0.16300000000000006,0.30799999999999994,0.005999999999999973,0.0
-4.236,6.760000000000001,5.3870000000000005,0.028000000000000042,-0.06299999999999999,0.425,0.0
-3.021,8.022,3.8609999999999998,-0.11699999999999999,0.184,-0.006999999999999981,0.0
-2.73,8.881,1.677,-0.06499999999999999,-0.056999999999999995,-0.018000000000000006,0.0
-3.7479999999999998,9.969,2.743,0.33199999999999996,-0.6319999999999999,0.15600000000000006,0.0
-3.4200000000000004,8.232,2.9150000000000005,-0.30799999999999994,-0.032000000000000015,0.05900000000000013,0.0
-2.681,8.084999999999999,3.4800000000000004,-0.125,0.09799999999999995,0.09600000000000002,0.0
-3.223,7.933999999999999,4.1530000000000005,0.013000000000000006,0.12999999999999995,-0.13799999999999998,0.0
-2.6609999999999996,8.940999999999999,-2.749,0.36,-1.073,0.281,1.0
-1.1300000000000001,5.418,-8.891000000000002,-0.0010000000000000898,0.03399999999999994,-0.324,0.0
-5.824,6.978,-4.656999999999999,0.20800000000000002,-0.22699999999999995,-0.2859999999999999,0.0
-2.683,8.158,3.7649999999999997,-0.31799999999999995,0.41999999999999993,0.23500000000000001,1.0
-2.27,8.287,1.46,-0.22999999999999998,0.30699999999999994,-0.01799999999999998,0.0
-3.6209999999999996,7.81,3.0789999999999997,-0.38900000000000007,0.205,0.231,0.0
-1.624,9.104000000000001,1.144,-0.11599999999999999,0.05800000000000003,0.10700000000000003,0.0
-3.1710000000000003,8.541,2.22,-0.22199999999999998,-0.015000000000000017,-0.05899999999999987,0.0
-1.4170000000000003,9.186,0.626,-0.020999999999999998,0.009000000000000025,-0.044999999999999984,0.0
-3.0159999999999996,8.867,4.12,-0.05300000000000007,0.06699999999999995,-0.05100000000000003,0.0
-3.4309999999999996,5.647,-7.414,-0.30999999999999994,-0.17000000000000007,-0.023,1.0
-2.321,8.864,2.283,-0.095,0.030000000000000006,-0.026999999999999996,0.0
-3.4869999999999997,6.608,-1.4480000000000002,0.8960000000000001,-0.376,-0.079,1.0
-2.535,7.831999999999999,4.186,-0.20800000000000002,0.11500000000000003,0.018000000000000023,0.0
-2.6409999999999996,8.16,3.3609999999999998,0.07699999999999999,-0.21200000000000002,-0.042999999999999976,0.0
-2.7939999999999996,7.016,-3.013,0.1879999999999999,0.12199999999999993,-3.3306690738754695e-17,0.0
-1.8720000000000003,8.904,2.141,-0.071,-0.06299999999999999,-0.11699999999999999,0.0
-3.012,8.32,4.217,-0.10699999999999998,0.07999999999999993,-0.01899999999999998,0.0
-2.791,8.878,1.654,-0.076,-0.045,-0.030000000000000006,0.0
-2.755,8.387,3.367,-0.16199999999999995,-0.056000000000000105,-0.0030000000000000083,1.0
-3.85,7.404999999999999,3.7040000000000006,0.485,-1.277,-0.7329999999999999,0.0
-2.856,7.645999999999999,3.5170000000000003,-0.065,0.009999999999999992,-0.11599999999999999,0.0
-2.6420000000000003,7.965999999999999,3.771,-0.32399999999999995,0.2739999999999999,0.13999999999999999,1.0
-2.1889999999999996,8.058,4.058,-0.131,-0.0030000000000000027,0.032999999999999995,0.0
-2.932,8.373000000000001,1.5559999999999998,-0.22699999999999995,-0.06600000000000009,0.165,1.0
-2.662,7.899000000000001,3.816,0.061999999999999986,-0.10500000000000002,-0.20299999999999999,0.0
-2.974,8.047,3.5309999999999997,0.19899999999999995,-0.257,-0.28,0.0
-2.2950000000000004,4.775,1.862,0.07999999999999997,-0.37000000000000005,0.10000000000000002,1.0
-1.932,8.748000000000001,2.739,-0.093,0.03200000000000001,-0.018,0.0
-4.867,6.468000000000001,2.597,-0.061999999999999944,-0.020000000000000084,-0.048,1.0
-1.056,9.116999999999999,1.8539999999999999,-0.37,-0.15100000000000002,0.12100000000000011,0.0
-2.6519999999999997,7.914999999999999,3.8559999999999994,0.22099999999999995,-0.276,-0.28099999999999997,0.0
-3.28,7.861,3.2399999999999998,-0.492,0.583,0.32,0.0
-3.149,7.841000000000001,3.4909999999999997,-0.21500000000000002,0.019000000000000006,0.086,0.0
-3.105,8.019000000000002,4.1579999999999995,0.192,-0.376,-0.22799999999999992,0.0
-2.789,7.595000000000001,3.4230000000000005,0.014999999999999989,-0.050000000000000024,-0.17400000000000002,0.0
-1.9299999999999997,7.926,3.393,-0.16899999999999998,-0.31700000000000006,-0.017999999999999884,0.0
-3.436,9.155999999999999,-2.5490000000000004,-0.024000000000000028,-0.25500000000000006,0.16,1.0
-2.91,8.742999999999999,2.691,-0.3390000000000001,0.5549999999999999,0.06299999999999997,0.0
-7.833,4.518,-7.714,0.647,-0.309,-0.33399999999999996,0.0
-2.624,8.807,3.02,-0.5309999999999999,0.28899999999999987,0.24500000000000002,0.0
-3.161,8.306000000000001,2.7060000000000004,-0.324,0.7529999999999999,0.34400000000000003,0.0
-5.443,7.453,1.793,0.003,0.051000000000000004,-0.153,0.0
-6.626,3.002,0.08399999999999994,0.23900000000000002,0.2029999999999999,-0.499,1.0
-4.6979999999999995,6.116999999999999,4.661,-0.19999999999999998,0.13299999999999995,-0.01699999999999987,0.0
-3.78,7.520999999999999,2.005,-0.09699999999999995,-0.07300000000000013,-0.23700000000000002,1.0
-5.134,7.351000000000001,-0.01799999999999995,0.146,0.02299999999999997,0.197,1.0
-2.402,7.7700000000000005,4.031000000000001,-0.047,-0.10600000000000005,-0.033999999999999975,0.0
-4.792,7.454000000000001,2.876,-0.215,-0.23899999999999996,0.11000000000000001,0.0
-6.797999999999999,7.507,-0.29500000000000004,0.02700000000000004,-0.13300000000000006,-0.417,1.0
-2.314,7.967999999999999,4.117,-0.07599999999999998,0.16899999999999998,0.044000000000000004,0.0
-3.1470000000000002,7.803999999999999,3.6189999999999998,0.05500000000000006,-0.04800000000000009,-0.17600000000000005,1.0
-2.749,9.001000000000001,1.406,-0.065,-0.06799999999999999,-0.015,0.0
-1.684,8.711,3.037,-0.049,-0.06399999999999997,-0.011,0.0
-3.753,8.402,4.5280000000000005,-0.06199999999999998,-0.10700000000000005,-0.07999999999999999,0.0
9.886,2.585,0.713,-0.095,-0.015000000000000003,-0.20500000000000002,1.0
-1.0189999999999997,8.114,-3.1180000000000003,-0.364,-0.016000000000000025,0.042000000000000016,1.0
-0.271,9.312999999999999,1.655,-0.365,-0.11200000000000002,0.1490000000000001,0.0
-3.255,8.192,2.7039999999999997,-0.13599999999999998,-0.035,0.031000000000000104,0.0
-1.5100000000000002,7.021000000000001,4.682,-0.10200000000000001,-0.23700000000000002,0.202,0.0
-4.644,5.353,5.824,-0.05699999999999994,-0.4360000000000001,-0.17200000000000001,1.0
-6.15,8.225,-3.012,-0.08099999999999999,0.31900000000000006,-0.366,0.0
-2.991,7.2829999999999995,3.8939999999999997,0.08899999999999998,-0.17900000000000005,-0.349,0.0
-2.7119999999999997,8.606,4.43,-0.05300000000000007,0.15299999999999994,-0.09300000000000001,0.0
-2.621,8.14,4.252,-0.10600000000000001,0.19499999999999998,-0.04199999999999997,0.0
-2.979,7.590000000000001,2.895,0.041999999999999996,-0.042000000000000016,-0.274,0.0
-3.7359999999999998,6.631,4.901,-0.177,-0.152,-0.08699999999999997,0.0
-3.3280000000000003,7.9670000000000005,4.005999999999999,0.05499999999999994,-0.11600000000000006,-0.273,0.0
-2.3560000000000003,4.961,1.707,-0.019000000000000038,-0.3490000000000001,0.279,1.0
-1.8989999999999998,8.725,2.853,-0.073,0.015000000000000008,-0.04,0.0
-2.395,8.774,2.582,-0.07100000000000001,-0.003999999999999994,-0.019,0.0
-2.545,8.211,3.4760000000000004,0.18299999999999997,-0.32200000000000006,-0.271,0.0
-2.33,8.26,3.281,0.05800000000000003,-0.32,0.20900000000000013,0.0
-1.843,8.630999999999998,3.013,-0.054000000000000006,-0.039999999999999994,-0.022,0.0
-2.955,8.233999999999998,4.558999999999999,0.196,-0.10400000000000002,-0.22200000000000003,0.0
-6.776999999999999,7.478999999999999,-0.21800000000000005,-0.01699999999999996,-0.0030000000000000803,-0.39399999999999996,1.0
-3.0629999999999997,7.808,3.411,0.15199999999999997,-0.0030000000000000248,-0.194,0.0
-2.849,7.561,4.8100000000000005,0.074,-0.219,-0.0009999999999999788,0.0
-3.1450000000000005,8.015,3.739,0.23399999999999999,-0.20700000000000002,-0.21000000000000002,0.0
-3.5740000000000003,7.3340000000000005,3.6799999999999997,-0.050000000000000024,0.006999999999999928,-0.028999999999999977,0.0
-2.982,8.724,3.4200000000000004,0.008000000000000012,0.057999999999999996,-0.07200000000000001,0.0
-3.087,7.739,4.385,-0.154,0.292,0.12800000000000003,0.0
-2.9909999999999997,8.926,4.311,0.27299999999999996,-0.07400000000000004,-0.24200000000000005,0.0
-3.009,8.794999999999998,3.5050000000000003,0.3490000000000001,-0.1610000000000001,-0.49300000000000005,0.0
3.817,7.890000000000001,1.2790000000000001,-0.34299999999999997,0.052000000000000005,-0.437,1.0
-2.4059999999999997,8.065999999999999,3.242,-0.074,0.08199999999999996,0.11399999999999999,0.0
-2.5599999999999996,8.35,2.133,-0.16299999999999998,0.31299999999999994,-0.035999999999999976,0.0
-3.4450000000000003,7.694,3.694,-0.11300000000000006,-0.052000000000000025,0.0009999999999999731,0.0
-2.539,8.962,1.3399999999999999,-0.13799999999999998,-0.02699999999999999,0.024,0.0
-1.4220000000000002,9.501000000000001,0.833,-0.118,1.1102230246251566e-17,0.06700000000000002,0.0
-2.756,8.863,1.6949999999999998,-0.066,-0.054000000000000006,-0.021000000000000008,0.0
-1.9599999999999997,8.664,2.464,-0.045,-0.15499999999999997,0.012000000000000004,0.0
-3.272,7.4159999999999995,3.6010000000000004,-0.11100000000000006,-0.10300000000000002,-0.05600000000000001,0.0
-2.9899999999999998,8.028,3.9979999999999998,0.043000000000000003,-0.231,-0.253,0.0
-2.999,7.923,2.906,-0.17500000000000007,-0.24000000000000005,0.07199999999999998,0.0
-3.3899999999999997,6.071,-3.9590000000000005,0.662,-0.18300000000000005,-0.085,1.0
-2.9,8.472,3.386,0.18899999999999997,-0.41600000000000004,-0.199,0.0
-3.4910000000000005,8.854000000000001,3.4219999999999997,0.22300000000000003,-0.06700000000000005,-0.417,0.0
-2.395,8.216,3.6090000000000004,0.17500000000000002,0.010999999999999954,-0.372,0.0
-2.697,8.943000000000001,3.4859999999999998,0.175,-0.08199999999999999,0.21400000000000005,0.0
-3.2119999999999997,7.683000000000002,3.6350000000000002,-0.051000000000000045,-0.14900000000000002,-0.08200000000000002,0.0
-3.401,7.406999999999999,3.934,-0.322,-0.08899999999999998,0.022999999999999993,0.0
-2.213,6.5009999999999994,-5.279,0.1679999999999999,0.12799999999999995,-0.011000000000000036,0.0
-2.769,8.029,3.7580000000000005,-0.089,-0.00500000000000001,-0.060999999999999874,0.0
-3.5389999999999993,7.706,3.936,-0.037,-0.10200000000000002,-0.09200000000000001,0.0
-3.527,7.981999999999999,3.598,-0.09500000000000004,0.03099999999999996,0.07799999999999999,0.0
-2.705,8.248000000000001,3.159,-0.026000000000000013,-0.15200000000000002,-0.03700000000000001,0.0
-2.695,8.854000000000001,1.786,-0.045,-0.014999999999999994,-0.049,0.0
-2.252,7.348999999999999,4.707,-0.12299999999999997,-0.21000000000000002,-0.051999999999999894,0.0
-1.1549999999999998,8.975999999999999,2.077,-0.018999999999999996,-0.14499999999999996,-0.050999999999999955,0.0
-2.6590000000000003,8.888,3.691,0.3529999999999999,-0.42000000000000004,-0.327,0.0
-2.9159999999999995,6.869,2.777,-0.22500000000000003,-0.5800000000000001,0.626,1.0
-2.912,7.748,3.5100000000000002,-0.403,0.46799999999999997,0.35200000000000004,0.0
1.094,4.114,2.2470000000000003,0.06299999999999996,-0.13900000000000004,0.01100000000000001,1.0
-5.954,6.610000000000001,2.02,-0.16699999999999998,-0.016999999999999987,0.0160000000000001,0.0
-3.34,6.667999999999999,5.522,-0.11599999999999999,-0.385,-0.20600000000000004,0.0
-0.6649999999999998,6.545,-5.774,-0.545,-0.24800000000000005,0.054000000000000006,1.0
-3.0900000000000003,8.006,3.633,-0.13999999999999999,0.189,0.164,0.0
-3.187,7.667999999999999,4.02,-0.1,0.175,0.183,0.0
-4.22,8.806000000000001,-2.262,-0.05900000000000003,0.06299999999999996,0.05800000000000001,1.0
-2.169,6.0600000000000005,6.337000000000001,-0.03099999999999996,0.231,0.15100000000000002,0.0
-3.374,7.305,3.0,-0.7060000000000001,0.766,0.5820000000000001,0.0
-2.347,8.907,2.2039999999999997,-0.088,-0.043,-0.026000000000000002,0.0
-3.661,7.491000000000001,4.362,-0.13599999999999998,-0.03900000000000004,-0.02199999999999997,0.0
-3.154,8.123000000000001,4.058000000000001,-0.054000000000000006,0.14299999999999996,0.026000000000000013,0.0
-3.335,7.196000000000001,4.439,-0.33599999999999997,0.314,0.24100000000000002,0.0
-4.148000000000001,8.058,2.567,0.129,0.346,-0.13299999999999987,0.0
-2.585,8.107,3.6419999999999995,-0.099,0.13099999999999998,-0.10500000000000001,0.0
-2.5629999999999997,7.755,3.6019999999999994,-0.07299999999999998,0.006999999999999932,-0.13399999999999995,0.0
-3.379,7.8690000000000015,3.7060000000000004,-0.06800000000000005,-0.03100000000000002,-0.009000000000000018,0.0
-2.6109999999999998,7.718999999999999,4.595999999999999,-0.11300000000000002,-0.185,0.023000000000000013,0.0
-4.16,8.025,2.0,0.034000000000000016,-0.029000000000000015,0.0820000000000001,0.0
-4.974,7.043000000000001,3.0669999999999997,-0.12299999999999997,0.126,-0.0119999999999999,0.0
-2.7139999999999995,8.325,4.254,0.23899999999999996,0.10399999999999995,-0.25899999999999995,0.0
-3.724,8.015,2.6830000000000003,0.284,-0.8820000000000002,-0.383,0.0
-3.6550000000000002,7.769999999999999,2.9400000000000004,-0.4000000000000001,0.27699999999999997,0.279,0.0
-5.265000000000001,4.89,-6.412999999999999,0.291,-0.4069999999999999,0.006000000000000005,0.0
-2.893,8.005,2.9539999999999997,-0.329,0.12099999999999997,0.193,0.0
-2.998,8.879,1.7449999999999999,-0.24699999999999997,0.14399999999999996,0.023000000000000125,0.0
-2.7319999999999998,7.915000000000001,3.1550000000000002,0.004999999999999993,-0.04600000000000002,-0.185,0.0
-2.982,8.466000000000001,3.5759999999999996,0.11700000000000003,0.05399999999999994,-0.32599999999999996,0.0
-2.288,7.728,3.3600000000000003,-0.333,0.309,0.17700000000000002,0.0
-3.189,8.035,3.872,0.07899999999999999,0.0059999999999999385,-0.22999999999999998,0.0
-2.571,7.055,-2.296,-0.352,-0.269,0.242,1.0
-2.444,7.473000000000001,4.4559999999999995,-0.16299999999999998,-0.29,-0.029999999999999895,0.0
-3.219,7.770999999999999,2.576,-0.27699999999999997,-0.05499999999999997,0.1940000000000001,0.0
-3.3630000000000004,8.27,3.679,-0.0010000000000000453,-0.12500000000000003,-0.13700000000000004,0.0
-2.93,8.107000000000001,3.397,0.16999999999999998,-0.3850000000000001,-0.18499999999999997,0.0
-3.056,7.657000000000001,4.1240000000000006,-0.15999999999999998,-0.09100000000000004,-0.02899999999999997,0.0
-1.834,8.714,2.887,-0.06499999999999999,-0.007999999999999991,-0.023,0.0
-2.883,8.308,3.4510000000000005,0.20100000000000007,-0.4620000000000001,0.03999999999999998,1.0
-2.459,8.145,4.034,0.03299999999999994,0.007999999999999955,-0.138,0.0
-2.864,8.541,4.031000000000001,0.118,0.025999999999999978,-0.223,0.0
-3.2479999999999998,8.331999999999999,2.849,-0.36699999999999994,0.46699999999999997,0.28099999999999997,1.0
-0.8290000000000001,3.7950000000000004,3.2260000000000004,-0.03200000000000002,-0.274,-0.11399999999999999,1.0
-2.022,8.870000000000001,-2.2620000000000005,0.2899999999999999,-0.899,0.052000000000000005,1.0
-2.045,8.697,2.979,-0.078,-0.07099999999999998,-0.0049999999999999975,0.0
-1.5399999999999996,7.912999999999999,-2.1420000000000003,-0.34500000000000003,0.13399999999999998,-0.534,1.0
-3.728,7.304,4.1610000000000005,-0.301,0.08699999999999998,0.038000000000000124,0.0
-3.566,8.274000000000001,3.6839999999999997,-0.22800000000000004,0.25599999999999995,0.23700000000000002,0.0
-1.5139999999999998,6.404000000000001,5.298,0.036000000000000046,-0.284,0.06800000000000002,0.0
-2.465,7.577,3.1109999999999998,-0.30300000000000005,0.23099999999999996,0.054000000000000006,0.0
-4.175,6.758,4.526999999999999,-0.273,0.12499999999999997,-0.006999999999999872,0.0
-1.5610000000000002,9.443000000000001,1.093,-0.10700000000000001,0.138,0.05900000000000003,0.0
-2.427,7.2780000000000005,0.05999999999999976,0.479,-0.29100000000000004,0.065,1.0
-2.606,9.027000000000001,3.399,0.09599999999999997,-0.21400000000000002,0.06600000000000004,0.0
-5.058000000000001,6.949,2.968,-0.209,0.10200000000000001,0.0190000000000001,0.0
-3.0439999999999996,8.543,2.976,-0.22000000000000006,0.24899999999999997,0.14899999999999997,0.0
-3.1390000000000002,8.019,2.937,0.132,-0.07300000000000004,-0.256,0.0
-3.3299999999999996,7.862,2.651,-0.484,0.10600000000000002,0.1610000000000001,0.0
-3.783,7.566,1.8,-0.06099999999999994,-0.02100000000000013,-0.291,1.0
-4.4399999999999995,7.633,3.003,-0.15400000000000005,0.03299999999999996,0.17600000000000002,1.0
-1.9419999999999997,8.165000000000001,4.0280000000000005,-0.153,0.073,0.021999999999999995,0.0
-3.21,7.438,4.095000000000001,0.13,-0.246,-0.14599999999999996,0.0
-2.5260000000000002,7.567,3.5089999999999995,0.07099999999999992,-0.15700000000000006,-0.223,0.0
-1.578,6.537999999999999,-4.631,-0.4549999999999999,-0.11400000000000006,-0.02400000000000002,1.0
-2.318,7.975,3.3,0.19199999999999992,-0.11000000000000006,-0.20600000000000002,0.0
-2.559,8.303,4.497999999999999,0.017999999999999988,0.18,-0.14899999999999997,0.0
-4.3870000000000005,7.411000000000001,3.278,0.43900000000000006,-0.9280000000000002,0.10499999999999998,1.0
-3.174,8.086,3.9440000000000004,0.095,0.017999999999999926,-0.261,0.0
-2.606,8.906,1.5150000000000001,-0.14100000000000001,0.005000000000000011,0.015,0.0
-1.518,8.52,3.2840000000000003,-0.0020000000000000018,-0.462,-0.19399999999999998,0.0
-4.31,6.9799999999999995,3.444,-0.177,-0.31,0.073,0.0
-4.458,6.891999999999999,2.4490000000000003,-0.13899999999999996,-0.09100000000000008,0.015000000000000003,1.0
-2.027,6.441,-6.132,-0.367,-0.056000000000000064,-0.008000000000000018,1.0
-1.739,9.269,1.4760000000000002,-0.10899999999999999,0.028000000000000025,0.08900000000000004,0.0
-3.123,7.789999999999999,2.662,-0.40800000000000003,0.051000000000000024,0.1810000000000001,0.0
-2.576,8.205000000000002,3.2990000000000004,0.24699999999999994,-0.4960000000000001,-0.21600000000000003,0.0
-3.1470000000000002,8.862,2.2199999999999998,-0.292,0.19699999999999995,0.392,0.0
-2.104,8.42,3.182,0.038000000000000034,-0.29000000000000004,0.1170000000000001,0.0
-2.8200000000000003,7.1579999999999995,4.648000000000001,-0.047,-0.07399999999999998,0.009999999999999998,0.0
-3.175,8.308,3.561,0.201,-0.346,-0.27799999999999997,0.0
-3.193,7.855000000000001,3.7990000000000004,-0.13799999999999998,0.217,0.21800000000000003,0.0
-2.888,8.77,4.082,0.128,0.06099999999999992,-0.19099999999999998,0.0
-2.3709999999999996,8.905,2.259,-0.08399999999999999,0.012000000000000005,-0.027999999999999997,0.0
-2.916,8.344999999999999,4.343,-0.02899999999999999,0.12799999999999995,-0.037999999999999985,0.0
-1.5449999999999997,8.212,-1.8920000000000001,-0.41100000000000003,0.23299999999999996,-0.5210000000000001,1.0
-2.931,8.544,4.186,0.08499999999999999,-0.06000000000000007,-0.23199999999999993,0.0
-4.411,7.6049999999999995,3.1510000000000002,-0.023,0.029000000000000005,-0.023000000000000003,0.0
-2.914,8.147,3.967,0.10600000000000001,0.01999999999999998,-0.182,0.0
-1.516,9.407,0.378,-0.254,-0.21799999999999997,-0.182,0.0
8.556000000000001,2.9230000000000005,0.845,-0.198,-0.12899999999999998,0.252,1.0
-6.228,7.765000000000001,-3.94,0.163,-0.03599999999999999,0.015000000000000013,0.0
-2.7079999999999997,8.906,1.565,-0.173,0.10000000000000002,-0.016000000000000004,0.0
-3.21,7.794,4.525,0.06899999999999999,-0.07899999999999999,-0.15699999999999997,0.0
-2.7969999999999997,7.955000000000001,3.5050000000000003,-0.27999999999999997,0.177,0.21800000000000014,0.0
-1.857,8.664,3.4189999999999996,0.29700000000000004,-0.6569999999999999,-0.041999999999999954,0.0
-5.923,4.5840000000000005,-1.361,-0.01599999999999993,-0.26900000000000013,0.14200000000000002,1.0
-3.1450000000000005,8.543,1.8790000000000002,0.17000000000000004,-1.6653345369377347e-17,-0.15399999999999986,0.0
-1.848,8.195,4.008,-0.186,0.09,0.039999999999999994,0.0
-2.754,9.196000000000002,1.984,-0.413,0.33799999999999997,0.376,0.0
-3.2950000000000004,7.809,3.8289999999999997,0.03500000000000003,-0.05700000000000001,-0.011999999999999894,0.0
-4.5329999999999995,6.976000000000001,4.279,0.264,-0.18400000000000002,-0.15799999999999986,0.0
-3.006,8.672999999999998,4.354,-0.06900000000000008,0.06399999999999993,-0.10100000000000002,0.0
-2.793,7.455,3.689,-0.009000000000000018,-0.05400000000000001,-0.136,0.0
-5.25,7.045999999999999,2.0349999999999997,0.43200000000000005,-0.9380000000000001,-0.23600000000000004,1.0
-3.214,6.733,5.438,-0.010000000000000005,-0.087,-0.05900000000000003,0.0
-2.4680000000000004,7.593999999999999,4.0409999999999995,0.083,-0.386,-0.167,0.0
-2.585,8.276,3.1979999999999995,-0.16299999999999992,0.1609999999999999,-0.17200000000000001,1.0
-2.91,8.48,2.492,-0.2679999999999999,-0.05600000000000009,0.148,1.0
-3.5690000000000004,6.547999999999999,2.353,-0.5349999999999999,-0.272,0.4000000000000001,0.0
-2.288,8.208,2.996,-0.018000000000000002,-0.153,-0.0059999999999999975,0.0
-2.766,8.760000000000002,2.2880000000000003,0.06799999999999999,-0.10299999999999998,-0.012,0.0
-2.682,7.729000000000001,3.569,-0.159,0.13599999999999998,-0.13299999999999998,0.0
-2.857,8.344999999999999,3.0349999999999997,-0.19000000000000006,0.24299999999999997,0.178,0.0
-3.01,7.747,4.003,-0.07799999999999996,-0.09900000000000012,-0.011000000000000006,1.0
-3.2600000000000002,8.372,3.803,0.08499999999999995,-0.257,-0.11700000000000003,0.0
-3.6369999999999996,8.805000000000001,3.145,0.03899999999999993,-0.3490000000000001,-0.18600000000000003,0.0
-4.554,7.337999999999999,3.189,-0.20600000000000002,-0.251,0.097,0.0
-4.297,7.2379999999999995,1.8969999999999998,-0.21900000000000003,-0.541,0.292,0.0
-2.02,8.238000000000001,2.408,-0.26299999999999996,0.4229999999999999,0.11099999999999999,1.0
-4.725,7.556,2.525,-0.23200000000000007,0.476,0.174,0.0
-2.6020000000000003,8.891,1.5530000000000002,-0.162,0.076,0.007999999999999997,0.0
-2.98,7.542999999999999,4.377999999999999,-0.02799999999999997,-0.009,-0.010999999999999894,0.0
-3.0490000000000004,8.693999999999999,3.9770000000000003,0.09000000000000001,-0.06500000000000006,-0.07599999999999998,0.0
-5.593999999999999,7.391,1.7189999999999999,-0.003,0.05,-0.16000000000000003,0.0
-2.601,8.073,3.5819999999999994,-0.199,0.037999999999999985,0.011,0.0
-2.404,9.037,1.261,0.002000000000000013,-0.21800000000000003,0.13100000000000012,0.0
-2.675,7.707000000000001,4.202,-0.147,-0.03199999999999999,0.05700000000000003,0.0
-1.494,6.857000000000001,7.087999999999999,-0.043999999999999984,0.188,0.391,0.0
-1.552,9.397,0.6409999999999999,-0.07799999999999999,-0.03999999999999999,-0.014999999999999982,0.0
-2.806,8.417000000000002,3.3560000000000003,-0.17199999999999996,-0.10000000000000012,0.0009999999999999933,1.0
-1.812,6.303,-6.393,0.1679999999999999,0.10499999999999994,-0.030000000000000037,0.0
-2.781,8.041,3.0620000000000003,-0.379,0.238,0.176,0.0
-5.231,7.728,1.9779999999999998,-0.21600000000000003,-0.127,0.10300000000000001,0.0
-3.476,7.104000000000001,3.156,-0.6140000000000001,0.6079999999999999,0.5189999999999999,0.0
