AccX,AccY,AccZ,GyroX,GyroY,GyroZ
2.27,-4.97,-9.50, -0.09,-0.11,-0.37
3.52,-4.77,-8.86, -0.33,-0.08,-0.61
3.22,-4.44,-8.32, -0.49,0.29,-1.06
5.88,-4.22,-7.40, -0.55,-0.46,0.07
6.87,-2.98,-8.57, -0.05,-0.37,-0.38
6.07,-2.97,-8.14, -0.23,1.09,-0.62
6.63,-1.98,-8.97, -0.27,0.92,-0.28
7.37,-0.04,-8.15, 0.81,-1.40,0.05
-8.67,2.02,-3.94, -0.59,-0.47,0.34
-8.79,1.81,-3.52, -0.26,-0.36,0.37
-8.48,1.50,-6.44, -0.63,-0.45,0.06
-8.85,2.32,-3.35, -0.10,-0.40,-0.01
-9.26,1.28,-3.14, -0.07,-0.27,-0.13
-9.94,1.17,-2.54, 0.03,-0.02,0.05
-9.25,1.47,-3.07, -0.09,-0.16,0.03
-8.85,2.51,-3.18, -0.07,-0.15,0.04
-7.92,1.63,-2.26, 0.02,-0.10,-0.30
-9.76,1.61,-2.71, -0.06,-0.11,-0.08
-9.58,1.59,-2.81, 0.01,-0.01,0.00
-9.83,0.92,-2.63, -0.03,-0.11,-0.20
-8.84,1.14,-3.17, 0.13,0.84,-0.04
-8.29,2.71,-3.25, 0.24,0.95,0.04
-8.95,1.03,-5.56, 0.50,1.00,-0.11
-8.07,0.85,-6.24, -0.05,-0.18,-0.10
-8.93,0.75,-5.37, -0.18,-0.16,-0.08
-8.33,0.61,-5.43, -0.40,-0.02,0.08
-7.05,1.76,-5.81, -0.11,-0.01,0.12
-8.36,0.68,-5.59, 0.44,0.01,-0.32
-8.55,1.40,-6.04, 0.33,0.14,-0.44
-9.66,0.61,-6.36, 0.35,-0.05,-0.38
2.72,-2.51,-9.38, 0.11,0.74,0.18
6.48,-3.09,-7.55, -0.60,0.40,0.70
5.55,-5.02,-7.93, -0.65,0.16,0.69
7.12,-5.13,-7.79, -1.14,0.60,0.50
6.35,-3.02,-6.35, 0.57,-1.59,-0.53
6.32,-4.06,-6.20, 0.64,-1.62,-0.64
-7.75,2.66,-6.10, -0.17,-0.30,-0.04
-8.36,2.37,-6.11, -0.20,-0.46,-0.27
-8.06,2.14,-5.11, -0.03,-0.40,-0.08
-8.55,2.43,-5.08, -0.10,-0.44,-0.14
-8.90,1.91,-4.53, 0.02,-0.06,-0.07
-9.07,1.41,-4.28, -0.07,-0.12,-0.05
-9.05,1.49,-4.48, -0.17,-0.01,-0.07
-8.51,2.21,-4.96, -0.27,0.03,-0.13
-8.59,1.91,-5.02, -0.33,0.08,-0.04
-8.83,1.75,-4.69, -0.17,-0.04,-0.08
-9.15,1.41,-4.37, -0.15,-0.05,-0.12
-8.59,1.37,-4.37, -0.15,-0.09,-0.06
-8.97,1.72,-3.71, 0.02,0.09,0.04
-7.72,2.27,-4.40, 0.12,0.29,-0.04
-8.50,2.04,-5.32, 0.20,0.59,-0.28
-8.12,2.73,-6.42, -0.09,0.88,-0.44
-5.27,0.00,-9.40, -0.63,1.64,-0.13
7.58,-5.93,-4.30, -0.28,0.06,0.07
7.20,-5.37,-5.05, -0.31,-0.33,0.04
7.00,-5.64,-4.48, -0.33,-0.37,0.12
6.96,-5.87,-4.64, -0.23,-0.59,0.10
7.86,-5.54,-5.02, -0.29,-0.45,0.10
7.26,-5.60,-5.29, -0.15,-0.66,-0.46
8.24,-5.32,-5.92, -0.10,-0.75,-0.63
7.50,-4.50,-6.02, 0.16,-1.14,-1.27
-8.48,2.33,-4.39, -0.00,-0.05,0.12
-7.48,3.97,-3.54, 0.06,0.90,0.19
-8.15,2.73,-4.32, 0.46,1.27,0.13
-5.32,1.54,-8.44, 0.39,0.46,-0.09
6.71,-5.53,-6.76, -0.24,0.28,0.20
8.81,-4.88,-6.24, -0.76,0.56,0.27
8.84,-4.21,-6.34, -0.89,0.35,-0.04
8.93,-3.81,-6.55, -0.81,0.30,-0.37
7.74,-3.11,-6.78, -1.06,0.74,-0.08
8.60,-3.98,-5.34, -0.88,0.81,-0.07
8.42,-0.54,-5.18, -0.44,0.43,-0.19
6.27,-3.77,-8.39, -0.34,-0.13,0.53
5.44,-2.88,-9.28, -0.09,-0.29,-0.01
4.28,-3.54,-8.58, -0.09,-0.64,-0.36
5.06,-1.97,-8.76, -0.04,-0.11,0.23
4.42,-3.94,-8.84, -0.07,-0.14,-0.19
3.58,-4.40,-9.25, -0.11,-0.11,-0.00
3.92,-3.71,-8.88, -0.03,-0.14,-0.02
4.13,-3.47,-9.11, -0.01,-0.14,0.04
4.33,-3.96,-8.84, -0.00,-0.17,-0.04
4.02,-4.18,-9.12, 0.10,0.03,-0.10
4.41,-4.61,-8.88, 0.09,-0.09,-0.08
4.03,-4.58,-8.76, 0.03,0.04,-0.08
4.28,-4.82,-8.74, -0.02,0.06,0.09
3.92,-4.43,-9.02, -0.01,-0.16,-0.13
4.86,-3.72,-7.59, 0.06,-0.03,-0.09
4.48,-5.02,-9.33, 0.38,0.47,-0.14
5.65,-4.38,-7.89, -0.46,0.11,0.28
5.93,-4.97,-8.26, -0.49,-0.06,-0.21
5.53,-3.87,-8.99, -1.17,0.48,-0.09
7.64,-3.15,-7.57, 0.55,-0.48,0.20
5.83,-3.55,-7.11, 0.78,-0.41,-0.65
4.66,-6.19,-6.87, -0.07,-0.34,0.26
5.77,-6.14,-6.96, -0.16,0.07,0.20
4.73,-6.49,-5.90, -0.48,-0.06,-0.41
6.52,-7.02,-6.46, -0.71,0.27,-0.56
7.70,-3.60,-8.21, 0.62,-1.04,-0.89
10.13,-4.57,-6.92, -1.58,0.28,1.21
7.77,-5.88,-3.50, -0.21,-0.22,-0.69
8.63,-2.85,-3.76, -0.68,-1.37,1.16
9.29,-4.05,-6.62, 0.27,-0.73,-0.13
6.77,-2.85,-6.58, 0.71,-1.09,-0.59
4.47,-5.13,-7.97, -0.19,-0.23,0.33
3.68,-5.89,-8.37, 0.11,-0.40,-0.15
1.12,-6.19,-9.25, -0.47,0.53,0.86
0.78,-5.38,-9.08, -0.15,0.02,-0.04
1.90,-4.28,-9.11, -0.31,0.12,-0.06
0.30,-5.46,-10.32, -0.28,0.18,-0.06
0.73,-4.90,-9.19, -0.33,0.05,0.08
1.41,-5.22,-9.28, 0.06,0.08,-0.06
1.20,-5.06,-9.99, 0.01,-0.12,-0.04
1.46,-5.39,-9.46, -0.05,-0.23,-0.06
1.29,-5.19,-9.78, -0.15,-0.28,0.05
0.60,-5.11,-10.49, -0.25,-0.55,0.00
0.32,-5.17,-9.98, -0.45,-0.62,0.14
-0.17,-4.50,-9.80, -0.03,-0.46,-0.06
-0.04,-4.57,-9.33, -0.30,-0.37,0.32
-1.26,-4.61,-9.33, 0.25,0.27,-0.46
-0.55,-4.82,-9.61, 0.32,0.42,-0.19
0.37,-5.19,-9.89, 0.24,0.50,-0.34
2.53,-6.69,-8.11, -0.08,0.00,-0.02
2.95,-6.70,-8.03, -0.11,0.03,0.01
2.04,-6.26,-8.63, -0.47,-0.37,0.28
1.78,-6.23,-8.64, -0.51,-0.41,0.30
-1.65,-4.89,-9.56, -0.09,-0.10,0.01
-1.58,-4.86,-9.63, -0.06,-0.12,-0.02
-1.62,-4.89,-9.40, -0.07,-0.11,-0.02
-0.21,-5.34,-8.89, 0.24,0.50,-0.33
-0.09,-5.36,-8.77, 0.28,0.50,-0.31
-0.01,-5.91,-9.08, 0.34,0.50,-0.32
1.83,-7.35,-8.25, -0.34,-0.45,0.27
1.60,-7.06,-8.32, -0.41,-0.50,0.35
-2.22,-4.55,-9.37, -0.03,-0.09,-0.05
-0.81,-5.02,-9.58, 0.33,0.40,-0.37
-0.96,-5.77,-9.62, 0.23,0.31,-0.42
1.97,-6.82,-8.20, 0.01,-0.09,-0.04
1.29,-6.71,-8.27, -0.20,-0.05,-0.02
1.39,-7.18,-7.79, 0.02,-0.12,-0.08
1.73,-6.93,-7.85, 0.01,0.04,0.09
2.53,-7.57,-7.56, 0.01,-0.00,-0.02
1.79,-6.94,-8.17, -0.31,-0.29,0.01
1.64,-6.52,-8.33, -0.40,-0.28,-0.00
0.96,-5.52,-9.05, -0.12,-0.18,-0.00
1.10,-5.56,-8.97, -0.12,-0.09,0.01
0.78,-5.90,-8.66, -0.02,-0.02,-0.04
1.09,-6.39,-9.20, 0.06,0.06,-0.09
0.61,-6.78,-9.02, 0.12,-0.11,-0.06
1.21,-6.15,-8.83, -0.00,0.06,0.05
2.07,-6.65,-7.94, -0.01,-0.02,-0.03
2.53,-7.36,-8.20, -0.05,-0.01,-0.02
1.89,-6.98,-7.73, 0.08,0.04,-0.08
2.75,-7.53,-7.58, 0.09,0.03,0.02
2.01,-6.89,-7.54, 0.10,-0.02,0.01
2.63,-7.65,-7.79, -0.07,-0.09,0.00
2.70,-7.62,-7.69, -0.17,-0.08,0.03
2.34,-6.75,-6.92, 0.06,-0.01,-0.01
1.84,-7.12,-7.42, 0.00,-0.06,-0.07
2.08,-7.05,-7.93, -0.04,0.04,-0.11
1.97,-6.94,-7.76, -0.46,-0.09,0.12
2.43,-6.15,-7.60, 0.02,-0.34,0.15
1.71,-6.81,-7.67, 0.19,-0.26,0.14
2.47,-6.77,-8.06, -0.20,-0.09,0.16
2.75,-7.20,-6.83, 0.07,-0.21,0.17
1.46,-6.74,-7.77, 0.11,-0.23,0.01
2.21,-8.09,-7.58, -0.36,0.26,0.00
3.24,-6.63,-7.39, -0.09,0.09,-0.10
4.15,-6.33,-7.10, -0.04,-0.02,-0.06
3.72,-6.72,-8.03, -0.19,-0.15,0.03
3.07,-6.53,-8.00, -0.38,-0.32,0.08
3.34,-6.09,-6.88, 0.13,-0.53,-0.23
2.84,-5.91,-7.45, 0.10,-0.14,0.04
4.16,-6.02,-7.01, 0.01,-0.17,-0.10
2.54,-6.99,-8.22, -0.12,-0.01,0.05
3.42,-6.63,-5.60, -0.19,-0.20,-0.13
3.22,-7.05,-8.51, -0.18,-0.02,-0.03
2.89,-6.60,-8.02, 0.01,0.24,-0.12
2.94,-6.99,-8.74, 0.12,0.19,-0.13
4.11,-6.08,-8.09, 0.04,-0.03,-0.04
3.96,-6.54,-7.14, 0.05,-0.30,-0.01
2.91,-6.96,-7.87, -0.06,-0.49,0.06
3.77,-6.51,-7.14, -0.21,-0.54,-0.03
2.37,-6.96,-7.86, 0.01,-0.56,0.05
2.08,-6.53,-7.61, 0.05,-0.30,0.01
2.80,-6.61,-7.00, 0.11,-0.16,0.06
2.15,-6.72,-7.99, 0.13,-0.27,0.01
3.28,-7.65,-7.61, 0.35,-0.65,-0.27
2.26,-6.09,-9.25, 0.52,-0.84,-0.25
0.35,-7.08,-6.91, 0.19,-0.23,-0.26
1.41,-7.26,-7.66, 0.50,-0.05,-0.19
2.50,-8.21,-7.04, 0.27,-0.62,-0.78
2.19,-8.15,-6.13, 0.25,-0.43,-0.96
3.51,-7.30,-7.19, -0.11,-0.44,-1.44
5.23,-2.57,-8.20, -0.60,-0.24,0.10
6.03,-4.87,-7.11, -0.20,-0.74,0.26
3.54,-3.90,-8.90, 0.27,-0.23,-0.45
4.79,-4.82,-8.75, -0.06,0.96,0.18
4.82,-4.51,-8.71, -1.14,1.27,0.70
5.78,-4.87,-8.94, -1.55,1.21,0.88
6.44,-3.10,-8.03, 0.30,-0.40,-0.36
6.21,-3.45,-8.87, 0.79,-1.47,-0.68
6.00,-4.30,-8.74, 0.69,-1.27,-1.06
4.15,-3.52,-8.09, 0.94,-0.71,-0.91
4.38,-4.29,-8.13, 0.26,-0.44,-0.27
4.62,-4.55,-8.47, -0.25,0.64,0.49
4.76,-4.78,-8.62, -0.22,0.64,0.38
4.37,-4.92,-9.26, -0.42,0.80,0.39
4.96,-4.09,-8.91, -1.08,0.60,1.02
5.54,-4.54,-8.41, -1.01,0.57,1.05
5.45,-4.73,-7.97, -0.40,0.63,0.82
4.44,-4.78,-8.05, -0.29,0.54,1.09
5.67,-5.37,-8.03, -0.17,0.40,0.80
6.32,-6.09,-8.81, -0.26,0.37,1.23
4.89,-5.30,-7.63, 0.50,-0.21,0.17
1.68,-6.16,-9.24, -0.29,-0.41,-0.07
1.47,-5.22,-9.25, -0.13,-0.47,-0.11
1.17,-5.15,-9.40, -0.08,-0.02,-0.02
0.44,-5.70,-8.19, 0.38,0.37,0.51
0.45,-5.93,-10.02, 0.19,0.95,0.82
0.80,-7.43,-8.44, 0.29,1.28,0.78
1.57,-7.02,-7.47, 0.63,0.90,-0.26
4.75,-7.53,-5.29, 0.71,1.04,-0.78
5.21,-7.70,-2.43, -0.73,-0.57,0.42
6.25,-7.92,-6.33, 0.08,-1.33,-1.90
1.92,-11.59,-5.50, -0.36,-0.30,-0.55
2.49,-6.85,-7.24, -0.23,-0.48,-0.77
2.09,-5.63,-7.31, 0.86,0.19,-1.08
6.72,-7.33,1.11, -0.38,-0.32,-0.28
6.80,-7.27,0.65, -0.30,-0.33,-0.14
7.68,-6.68,0.37, -0.16,-0.34,-0.27
8.12,-6.30,0.61, -0.08,-0.51,-0.49
9.99,-6.57,-1.02, 0.09,-0.41,-0.39
9.39,-5.06,-0.51, 0.02,-0.26,-0.50
9.44,-5.40,-0.82, -0.28,-0.17,0.03
8.50,-5.15,-1.17, -0.07,-0.05,0.03
8.39,-4.88,-1.39, -0.03,0.07,-0.11
8.61,-5.89,-0.87, -0.13,-0.07,-0.13
9.05,-5.83,-1.45, -0.30,0.06,-0.18
8.90,-4.67,-0.69, -0.29,-0.23,0.07
9.63,-5.44,-2.16, -0.30,-0.19,-0.02
8.92,-5.17,-1.86, -0.10,0.05,0.20
8.69,-5.29,-2.29, -0.06,-0.02,0.13
8.41,-6.02,-1.78, -0.06,-0.07,0.01
7.99,-5.60,-1.33, -0.00,0.09,0.09
8.73,-5.46,-2.69, -0.07,0.06,-0.03
8.32,-5.54,-2.27, -0.19,-0.13,0.05
7.74,-5.95,-1.56, 0.09,-0.10,0.15
7.74,-5.80,-2.29, 0.16,0.06,0.16
8.25,-6.39,-2.38, 0.29,0.14,0.10
8.50,-6.93,-1.58, 0.38,0.11,0.05
7.69,-6.17,-1.75, -0.27,-0.74,-0.07
8.39,-6.95,-1.14, -0.28,-0.86,-0.21
8.20,-6.90,-1.86, -0.37,-0.71,-0.45
8.82,-5.97,-1.28, -0.30,0.06,-0.10
14.13,-5.63,-3.58, 0.58,0.75,-1.08
8.64,2.32,-2.15, -0.41,-0.51,-0.34
10.26,1.54,-3.58, -0.14,-0.29,-0.38
8.89,1.26,-2.75, 0.16,0.19,0.92
8.87,4.85,-2.63, -0.02,0.09,0.99
10.17,1.22,-2.14, 0.12,0.14,0.15
10.43,1.26,-2.50, 0.10,-0.24,0.24
11.21,0.32,-2.84, 0.17,-0.18,-0.10
9.58,-0.17,-3.13, -0.38,0.10,1.57
8.89,-0.15,-2.32, 0.51,0.01,2.70
10.66,-2.16,2.24, -0.00,-0.32,-0.39
9.78,-4.03,1.22, -0.43,-0.25,0.67
8.94,-4.09,0.52, -0.48,0.17,1.42
8.90,-4.23,0.85, -0.62,0.35,0.94
8.43,-5.59,0.63, -0.35,0.23,1.23
6.99,-7.73,1.65, -0.06,-0.28,-0.78
8.21,-6.37,1.62, 0.25,-0.43,-1.87
7.99,-6.50,1.69, 0.35,-0.33,-1.95
9.03,-6.37,1.17, 0.31,-0.56,-1.38
7.60,-4.70,1.76, 0.27,-0.64,-0.88
8.48,-4.75,1.79, 0.39,-0.36,0.22
8.59,-4.41,0.59, 0.22,-0.36,-0.36
9.33,-5.22,1.36, 0.08,-0.42,-0.70
7.96,-3.64,-0.23, -0.04,-0.08,0.03
9.24,-4.98,0.57, -0.15,-0.15,0.19
8.52,-5.19,0.25, 0.55,0.23,-0.27
10.56,-5.55,2.01, 0.51,0.23,-0.36
12.43,-7.29,2.14, 0.21,0.25,-0.30
7.21,-5.51,1.16, -0.50,-0.05,-0.02
8.28,-12.16,-0.48, -0.92,0.27,-0.35
8.05,-7.50,-0.86, 0.78,-0.35,-0.84
9.68,-4.16,-0.14, -1.05,0.25,0.49
8.99,-6.37,1.40, -0.14,-0.25,-0.33
8.01,-6.16,1.24, -0.11,0.07,-0.30
8.82,-5.19,0.24, -0.42,0.27,0.23
7.13,-6.28,2.51, -0.27,0.14,0.07
7.35,-4.65,0.89, -0.38,-0.08,0.02
7.27,-5.73,0.44, -0.34,0.05,0.09
1.62,-5.14,-11.86, 0.03,-0.06,1.77
3.15,-4.18,-9.76, -1.03,-0.28,0.31
2.06,-4.15,-8.49, 0.18,-0.06,-0.45
1.13,-4.00,-10.04, 0.26,-0.04,-0.34
1.06,-4.70,-10.03, 0.29,0.01,-0.54
0.56,-4.61,-10.25, 0.18,0.03,-0.62
1.88,-5.08,-9.20, 0.05,0.09,-0.23
2.14,-4.51,-9.90, -0.16,-0.12,-0.09
2.06,-3.96,-10.61, -0.30,0.01,-0.24
2.03,-3.80,-9.02, -0.29,-0.03,0.04
1.82,-3.42,-10.47, -0.05,-0.16,-0.16
2.92,-3.97,-10.03, 0.22,0.01,-0.10
2.76,-3.69,-10.07, 0.28,-0.13,-0.02
1.86,-4.36,-9.00, 0.39,-0.07,0.11
1.07,-5.02,-9.40, 0.37,0.09,0.40
2.23,-5.14,-9.17, 0.58,-0.21,-0.03
-0.07,-7.08,-7.11, 0.42,-0.03,0.69
1.55,-7.45,-6.12, 0.05,0.01,-0.86
1.97,-8.34,-6.99, 0.08,-0.16,-0.53
3.29,-7.53,-7.18, 0.11,-0.05,-0.82
2.48,-7.15,-6.89, 0.08,-0.07,-0.39
2.13,-7.90,-6.93, 0.14,-0.13,-0.79
4.03,-8.03,-7.52, 0.09,-0.09,-0.08
2.65,-8.13,-6.48, -0.14,-0.00,0.45
3.04,-7.96,-7.06, -0.21,0.07,0.29
1.92,-7.51,-6.81, -0.21,-0.01,0.32
0.61,-7.68,-6.82, -0.03,-0.40,-0.80
2.13,-6.81,-6.12, -0.17,-0.09,0.23
3.76,-6.24,-7.80, -0.40,0.04,0.40
4.77,-6.32,-7.92, -0.45,0.13,-0.60
2.47,-5.91,-6.65, 1.32,0.32,-0.28
5.03,-7.18,-7.58, 0.93,-0.03,0.31
5.60,-9.17,-7.76, 0.65,-0.15,-0.27
5.09,-8.78,-6.48, 0.38,0.13,-0.20
4.62,-8.66,-5.75, -0.13,-0.12,0.35
3.55,-7.97,-5.42, -0.29,-0.09,-0.20
3.73,-8.48,-4.86, -0.08,-0.09,0.13
3.54,-8.46,-5.19, -0.13,-0.01,-0.00
3.23,-8.54,-4.94, -0.13,-0.08,0.19
3.13,-8.65,-4.95, -0.16,-0.14,0.11
3.04,-9.13,-5.30, 0.23,-0.08,0.14
2.75,-8.99,-4.75, 0.04,-0.02,0.04
2.99,-8.85,-3.95, 0.08,-0.14,0.23
3.31,-8.92,-5.35, -0.09,-0.18,-0.09
2.74,-9.25,-4.51, -0.24,-0.16,0.12
3.24,-8.66,-5.38, -0.27,-0.08,-0.20
3.57,-8.86,-4.82, -0.52,-0.28,-1.25
4.06,-8.42,-4.87, -0.40,-0.21,-0.59
3.65,-7.98,-5.38, -0.11,-0.12,-0.32
3.75,-7.93,-5.60, -0.07,-0.21,-0.21
3.89,-7.51,-5.95, 0.22,-0.03,0.25
4.73,-7.51,-5.61, 0.11,-0.03,0.07
4.92,-7.72,-5.58, 0.02,-0.08,0.17
4.48,-8.57,-5.31, 0.16,-0.06,0.32
3.66,-8.41,-5.13, 0.06,-0.06,0.37
3.85,-8.88,-4.93, -0.01,-0.12,0.27
3.44,-9.04,-5.02, -0.04,-0.05,0.23
3.38,-8.73,-5.35, -0.35,-0.18,-0.25
2.88,-8.48,-5.08, -0.37,-0.20,-0.31
2.01,-8.51,-5.53, 0.20,-0.01,0.88
2.07,-9.06,-4.84, -0.15,-0.09,-1.76
5.53,-5.84,-3.78, 0.03,-0.40,-0.50
7.36,-6.81,-7.44, 0.11,-0.49,-0.55
1.48,-8.26,-3.84, -0.07,-0.18,-0.79
4.10,-6.52,-4.82, -0.09,-0.12,-0.60
5.17,-6.15,-5.83, -0.08,0.23,-0.53
4.47,-5.84,-6.61, -0.55,0.04,0.15
6.29,-6.98,-6.42, 0.22,0.24,0.64
3.95,-8.48,-5.83, 0.52,-0.05,0.97
3.73,-8.74,-4.81, -0.02,-0.00,0.26
4.51,-8.97,-5.26, -0.47,-0.25,-0.59
2.87,-8.70,-3.73, -0.47,-0.17,-0.12
3.20,-8.52,-4.35, 0.07,-0.04,0.16
4.37,-8.04,-5.72, -0.29,-0.21,-0.28
3.78,-7.70,-4.78, -0.37,-0.24,-0.11
3.92,-7.23,-6.20, -0.19,-0.06,-0.02
4.31,-7.15,-5.53, 0.05,0.04,0.11
4.92,-7.42,-6.20, 0.23,0.03,-0.08
4.99,-7.64,-6.08, 0.01,0.03,0.01
3.74,-8.34,-4.90, -0.01,-0.05,-0.01
4.31,-7.86,-4.71, 0.13,0.03,0.19
4.39,-8.18,-5.93, 0.04,0.06,0.42
3.90,-8.42,-5.31, 0.06,0.11,0.32
2.53,-10.44,-3.63, 0.06,-0.30,-0.49
6.05,-3.00,-4.57, 0.64,-0.23,-0.67
4.51,-4.34,-5.08, 0.65,-0.21,-1.41
4.65,-8.83,-4.10, -0.37,-0.03,0.19
4.25,-7.18,-4.35, -0.99,0.03,0.84
5.72,-8.84,-3.54, -0.62,-0.07,0.01
5.48,-8.23,-4.30, -0.16,0.21,0.33
3.89,-7.90,-4.83, -0.21,0.26,0.01
3.45,-10.40,-4.54, 0.10,-0.04,-0.40
3.32,-7.94,-4.55, -0.08,0.04,0.44
4.47,-8.85,-5.20, -0.07,0.36,0.36
3.55,-8.81,-4.47, -0.04,0.03,0.14
3.17,-9.03,-4.45, -0.03,-0.12,0.23
2.78,-9.03,-4.10, -0.04,-0.02,0.15
3.29,-9.11,-4.32, -0.11,-0.08,-0.09
2.97,-8.86,-4.14, -0.16,-0.20,-0.19
2.81,-8.52,-3.66, 0.10,-0.02,0.25
2.80,-8.83,-4.08, -0.09,0.01,0.12
2.60,-9.13,-4.05, -0.09,-0.06,-0.02
5.03,-8.00,-5.13, 0.13,-0.45,-0.66
4.29,-7.60,-5.67, 0.31,-0.28,0.17
4.43,-7.82,-4.43, 0.18,-0.14,0.18
3.62,-6.24,-5.61, -0.41,0.06,0.60
5.37,-9.74,-4.61, -0.41,0.09,0.11
3.20,-8.94,-4.39, -0.13,0.17,0.30
1.48,-10.02,-3.24, -0.07,0.22,0.08
3.23,-8.47,-4.43, 0.11,0.09,0.35
2.32,-9.19,-4.09, 0.09,0.02,0.18
2.59,-9.50,-4.19, 0.03,-0.01,0.32
2.33,-9.40,-3.96, -0.07,-0.10,-0.06
2.64,-9.68,-4.67, -0.27,0.09,-0.20
3.85,-8.60,-5.09, -0.02,-0.12,-0.04
4.12,-8.61,-5.63, -0.45,-0.11,-0.54
2.31,-8.69,-3.94, -0.24,0.10,0.01
4.19,-8.52,-4.63, -0.12,-0.02,-0.10
4.76,-8.27,-4.80, -0.08,0.21,0.16
4.79,-8.09,-5.07, -0.32,-0.14,-0.27
5.02,-7.92,-4.89, -0.02,-0.04,-0.03
4.74,-8.25,-5.88, -0.07,0.08,0.02
4.91,-7.86,-5.46, -0.02,0.03,-0.02
4.07,-7.91,-4.98, -0.16,0.15,0.09
5.90,-8.12,-4.73, -0.14,-0.10,-0.08
4.26,-7.88,-6.01, -0.08,0.07,-0.16
4.48,-8.08,-4.86, -0.06,-0.07,0.12
5.06,-8.00,-5.35, -0.21,-0.06,-0.22
4.42,-7.57,-5.20, -0.09,0.06,0.02
5.02,-8.18,-5.75, -0.16,0.05,-0.21
4.11,-7.82,-5.01, -0.25,-0.02,0.04
5.31,-8.05,-4.26, -0.19,-0.36,-0.39
5.45,-6.24,-5.57, -0.29,-0.80,-1.46
11.01,-19.42,-8.44, 3.14,1.11,-1.98
4.10,-1.02,-1.73, 2.63,1.40,-0.37
8.32,-5.97,-2.03, -0.02,-0.02,-0.39
8.53,-4.83,-2.07, -0.20,-0.12,-0.10
8.93,-4.80,-2.35, -0.11,-0.14,0.04
8.48,-4.56,-1.92, -0.01,-0.08,0.06
9.00,-5.85,-1.70, -0.11,-0.04,0.17
9.07,-5.64,-2.00, -0.05,-0.09,-0.21
8.67,-5.66,-2.10, -0.11,-0.06,-0.16
9.38,-5.06,-2.04, -0.09,-0.06,-0.13
9.39,-4.68,-1.92, -0.01,-0.07,-0.01
8.90,-4.48,-2.40, -0.03,-0.13,-0.03
8.82,-4.58,-2.32, -0.05,-0.11,0.15
8.91,-5.24,-2.13, -0.01,-0.15,-0.11
9.14,-5.07,-2.20, 0.05,-0.02,-0.03
8.10,-5.08,-1.96, -0.01,-0.16,0.24
8.78,-5.66,-1.93, -0.03,0.02,-0.52
7.68,-5.71,-2.55, -0.31,-0.32,0.52
3.66,-6.78,-7.93, -0.30,-0.20,0.20
2.38,-5.98,-7.18, 0.01,-0.09,-0.22
3.48,-6.91,-8.89, 0.08,0.09,-0.21
3.69,-6.72,-7.64, -0.02,-0.09,-0.10
2.67,-6.05,-8.41, -0.08,-0.04,-0.02
2.46,-5.55,-6.82, -0.05,-0.00,-0.16
3.75,-7.55,-9.52, 0.22,0.09,-0.31
2.95,-5.74,-6.57, -0.44,-0.18,0.33
4.15,-6.96,-8.86, -0.26,-0.04,0.20
2.10,-5.75,-8.17, -0.02,-0.10,-0.10
3.55,-6.59,-7.99, -0.03,-0.08,-0.08
2.41,-5.88,-8.60, -0.01,-0.06,-0.09
2.26,-5.74,-6.51, -0.04,-0.08,-0.10
4.16,-6.98,-8.99, 0.22,0.20,-0.50
2.94,-6.29,-8.23, 0.33,0.52,-0.33
4.60,-6.56,-7.46, 0.01,0.60,-0.85
3.38,-5.70,-6.97, 0.02,0.86,-0.29
4.10,-5.06,-7.27, 0.00,0.74,-0.18
6.25,-6.23,-6.00, -0.02,0.02,-0.19
6.11,-6.05,-5.12, -0.11,0.10,0.13
6.92,-6.45,-5.05, -0.03,-0.05,0.02
6.72,-6.36,-6.00, 0.09,-0.02,-0.21
5.67,-5.81,-5.28, -0.04,0.02,-0.06
6.44,-6.15,-4.64, -0.17,-0.06,0.09
5.99,-5.90,-5.49, 0.05,0.06,-0.17
7.07,-6.34,-4.74, -0.26,-0.17,0.21
5.91,-5.80,-4.87, 0.01,-0.03,-0.06
6.01,-6.01,-5.81, 0.05,-0.04,-0.17
6.87,-6.63,-6.41, -0.11,0.00,0.08
5.85,-6.11,-5.88, -0.39,-0.02,0.25
2.61,-5.05,-9.51, -0.31,0.19,0.44
1.89,-5.43,-9.05, -0.23,0.06,0.33
3.12,-4.19,-8.93, -0.04,0.35,0.41
1.69,-4.79,-9.46, 0.14,-0.04,-0.51
1.63,-5.78,-10.34, 0.25,-0.77,-0.43
4.24,-5.56,-6.07, -0.32,0.90,0.93
1.85,-6.07,-9.11, -0.98,0.26,0.47
2.01,-6.80,-9.69, -0.85,-0.21,0.72
2.77,-3.96,-9.40, -0.16,0.40,0.25
3.30,-5.40,-7.66, -0.04,-0.74,-0.50
2.69,-4.81,-9.54, -0.25,-0.11,0.10
3.04,-2.71,-8.75, -0.40,0.36,0.40
2.26,-4.14,-9.43, -0.23,0.52,0.19
1.20,-4.47,-9.88, 0.21,-0.30,0.22
3.02,-4.43,-7.74, 0.18,-0.08,0.08
2.62,-5.04,-8.54, -0.09,-0.02,-0.24
2.23,-6.62,-7.97, 0.23,-0.40,-0.42
1.85,-3.63,-9.58, 0.06,0.09,-0.11
3.12,-4.96,-9.34, 0.11,0.22,-0.64
0.88,-4.96,-10.02, 0.02,0.81,-0.08
2.38,-6.25,-9.08, 0.02,-0.71,-1.21
1.07,-4.72,-9.55, 0.06,-0.59,-0.68
3.58,-5.29,-10.66, -0.21,-0.04,0.10
2.70,-4.62,-9.51, -0.38,-0.15,0.12
1.83,-4.34,-9.98, -0.34,-0.04,0.08
2.19,-4.00,-9.88, -0.41,-0.01,0.16
1.90,-3.82,-10.21, -0.41,-0.01,0.18
2.51,-3.50,-9.86, -0.40,-0.04,0.21
2.49,-3.39,-9.89, -0.33,0.11,0.18
2.50,-3.05,-10.24, -0.12,-0.01,-0.07
2.31,-2.94,-10.35, -0.09,-0.08,-0.18
2.24,-2.88,-10.58, -0.03,-0.19,-0.23
2.11,-3.27,-10.57, -0.02,-0.03,0.02
2.16,-4.00,-9.79, -0.07,-0.07,0.18
1.71,-3.57,-10.60, -0.08,-0.17,0.23
1.66,-4.37,-9.70, 0.21,-0.10,0.46
1.59,-4.18,-8.97, 0.22,0.09,0.46
1.42,-4.97,-9.37, 0.04,0.31,0.71
1.02,-4.95,-9.57, 0.02,0.33,0.70
1.57,-5.03,-9.09, -0.01,0.54,0.82
1.43,-5.55,-9.86, -0.20,0.64,0.91
0.99,-6.52,-8.84, 0.01,0.25,0.54
2.25,-5.55,-8.98, -0.07,0.49,0.73
3.14,-6.16,-7.59, -0.27,0.67,0.94
1.07,-6.26,-9.12, -0.34,0.79,0.37
2.95,-6.33,-8.75, -0.57,1.00,0.79
1.45,-7.08,-7.92, -0.51,0.99,0.79
3.31,-5.65,-8.34, -0.31,0.77,0.66
3.38,-7.40,-8.97, -0.02,-0.22,0.07
4.18,-5.47,-9.08, -0.02,-0.32,-0.16
3.80,-5.16,-8.10, 0.01,-0.53,-0.73
3.66,-4.78,-9.00, -0.41,0.70,0.73
4.05,-6.22,-8.04, -0.36,0.04,0.52
2.36,-4.27,-8.99, -0.03,-0.03,-0.01
2.20,-5.57,-10.05, 0.32,-0.55,-0.85
3.10,-7.33,-7.55, -0.25,-0.38,-0.70
5.30,-6.46,-9.30, 0.20,0.07,0.23
2.52,-4.44,-8.50, -0.33,0.47,0.87
1.58,-5.37,-8.64, -0.23,0.32,0.46
1.12,-5.91,-9.42, -0.08,0.35,0.45
2.25,-6.48,-8.31, -0.22,0.29,-0.18
2.04,-5.41,-9.92, 0.42,-0.21,0.06
3.37,-5.32,-10.54, 0.20,0.03,-0.10
2.18,-5.52,-10.15, 0.12,0.27,0.39
2.31,-5.41,-10.68, -0.06,0.58,0.09
0.31,-6.50,-8.44, -0.20,0.68,-0.21
1.36,-5.06,-9.25, -0.21,0.65,0.64
2.87,-2.50,-11.09, -0.43,0.56,0.68
0.58,-6.87,-7.66, -0.41,0.02,-0.48
2.81,-7.04,-8.31, 0.15,-0.70,-1.20
3.73,-5.81,-10.83, 0.04,-0.01,-0.11
1.72,-5.52,-6.53, 0.08,-0.21,-1.01
0.79,-5.97,-8.74, 0.04,0.18,-0.77
3.25,-5.82,-7.38, -0.56,1.32,0.97
3.09,-6.30,-9.10, -0.11,-0.03,0.08
4.09,-4.42,-9.76, -0.10,0.42,0.43
2.85,-4.77,-9.39, -0.14,0.25,0.06
3.24,-5.85,-8.70, -0.17,-0.12,-0.47
3.74,-4.59,-7.55, -0.01,-0.54,-0.12
0.37,-5.63,-9.06, 0.04,-0.88,-1.20
1.74,-4.71,-8.60, -0.20,-0.44,-0.64
2.04,-4.64,-9.28, 0.13,-0.49,-0.24
2.41,-3.17,-9.77, 0.01,-0.06,0.26
2.65,-7.00,-10.11, -0.07,-0.33,0.43
-1.19,-1.78,-8.74, -0.52,1.20,0.41
2.01,-7.39,-8.62, -0.39,0.13,-0.49
1.86,-6.85,-9.66, 0.10,0.48,-0.01
3.35,-4.16,-6.60, 0.05,0.48,0.75
3.94,-3.75,-9.70, -0.01,0.33,0.22
3.47,-3.42,-10.40, 0.05,0.37,0.21
1.77,-4.83,-9.14, -0.07,0.14,0.74
1.63,-6.07,-8.19, -0.38,0.03,0.80
2.46,-5.03,-8.15, -0.14,0.34,0.40
2.05,-5.77,-9.66, 0.11,0.62,0.32
2.01,-4.69,-8.63, 0.10,0.40,0.44
2.05,-6.13,-9.42, 0.16,0.50,0.41
2.78,-4.23,-9.94, -0.34,0.58,0.05
1.74,-4.17,-8.98, -0.34,0.22,-0.30
2.30,-5.49,-8.41, -0.16,-0.01,-0.46
1.52,-6.01,-9.90, 0.60,0.08,0.23
4.13,-5.58,-7.91, -0.30,-0.27,0.14
4.71,-4.62,-7.41, 0.18,0.31,-0.16
5.08,-6.74,-6.21, -1.16,0.49,1.08
3.97,-5.48,-6.63, -1.37,0.38,1.32
5.28,-4.66,-6.39, -0.54,-0.38,-0.14
7.21,-3.89,-8.29, 0.31,-1.18,-1.92
4.30,-5.94,-9.03, 0.47,-1.74,-1.79
2.03,-4.43,-9.96, 0.22,-0.38,-0.35
1.81,-7.15,-8.33, -0.25,-0.02,0.34
2.80,-5.95,-8.55, -0.02,0.21,0.14
2.33,-3.25,-9.02, -0.14,0.46,0.27
0.69,-4.59,-9.58, -0.09,0.33,-0.17
2.88,-4.67,-9.51, 0.04,0.11,0.02
1.33,-4.22,-8.72, -0.05,0.41,-0.23
3.27,-4.83,-7.24, 0.47,0.18,-1.22
2.04,-4.68,-8.83, -0.12,0.42,0.09
1.76,-7.38,-7.13, 0.15,0.22,0.19
1.74,-4.67,-8.71, -0.33,0.34,0.51
1.70,-6.30,-9.50, -0.04,-0.10,-0.13
3.52,-3.98,-9.12, -0.25,0.38,0.34
1.65,-3.56,-7.58, -0.01,1.15,-0.04
0.91,-5.89,-6.05, -1.00,0.09,-0.11
3.49,-6.84,-10.63, -0.02,1.06,0.88
-0.68,-6.13,-8.20, -0.03,0.16,-0.20
0.89,-6.64,-9.70, 0.22,-0.58,-0.70
2.11,-6.81,-9.73, 0.18,-0.15,0.26
2.77,-6.72,-8.79, 0.03,0.43,0.13
3.97,-5.43,-9.75, -0.42,0.61,0.96
1.46,-8.64,-8.11, -0.02,-0.79,-0.44
1.45,-7.23,-8.48, -0.08,-0.86,-0.69
1.48,-5.81,-8.44, -0.47,0.71,0.44
2.02,-5.56,-8.60, -0.09,0.47,0.18
1.84,-6.98,-7.81, -0.12,-0.10,-0.52
5.81,-4.78,-8.28, -0.10,-0.29,0.78
6.57,-5.55,-8.10, -0.07,-0.34,0.66
2.65,-6.50,-8.38, -0.06,-0.41,-0.56
3.19,-6.96,-8.32, 0.17,-0.62,-0.58
2.71,-4.34,-8.68, -0.21,-0.14,-0.33
3.24,-4.72,-9.32, -0.33,-0.16,-0.00
2.63,-5.36,-9.24, -0.10,-0.28,-0.02
2.46,-5.57,-8.72, -0.06,-0.15,0.16
2.13,-5.50,-8.45, 0.03,-0.05,-0.10
3.03,-6.17,-8.55, 0.07,0.02,-0.20
1.76,-5.96,-8.90, -0.00,-0.03,-0.43
2.41,-5.43,-9.25, 0.05,-0.17,0.11
2.53,-4.77,-7.79, -0.07,-0.60,-0.67
1.57,-6.10,-9.14, -0.52,0.20,0.56
3.20,-5.14,-7.70, -0.56,0.45,1.26
4.56,-4.35,-9.23, -0.22,0.01,0.46
2.31,-7.40,-8.36, -0.12,0.09,0.00
4.07,-5.94,-8.47, -0.08,-0.02,0.00
1.71,-4.50,-8.35, -0.19,0.39,0.03
1.82,-4.81,-9.24, -0.16,0.08,-0.11
2.89,-5.57,-9.42, 0.30,0.20,0.43
2.39,-7.01,-7.62, -0.14,0.28,0.43
4.95,-4.94,-9.23, -0.24,0.63,0.60
2.35,-6.81,-7.96, -0.05,-0.14,-0.32
4.49,-5.38,-8.35, -0.09,0.12,-0.08
2.00,-5.66,-8.84, -0.13,0.14,-0.15
2.69,-6.38,-8.52, -0.04,-0.17,-0.29
2.85,-7.32,-7.55, 0.35,-0.71,-0.75
2.25,-5.77,-9.07, 0.14,-0.18,-0.13
2.04,-6.23,-7.26, -0.44,0.05,-0.02
1.43,-6.42,-7.58, -0.27,-0.37,-0.47
2.16,-6.91,-8.77, -0.19,-0.47,-0.60
2.07,-4.71,-8.63, 0.07,-0.22,-0.26
2.22,-5.18,-9.57, -0.12,0.07,-0.23
0.98,-6.51,-9.42, 0.20,-0.40,-0.33
2.59,-7.24,-8.12, 0.09,-0.71,-0.36
-0.67,-6.35,-6.19, -0.27,-0.23,-0.17
1.56,-5.75,-9.79, -0.09,0.19,-0.26
1.60,-5.43,-9.33, -0.26,0.49,0.28
2.04,-4.37,-8.87, -0.15,-0.37,-0.30
2.31,-5.01,-9.60, 0.02,-0.16,-0.12
3.02,-4.42,-9.58, 0.04,0.04,-0.10
2.68,-6.10,-8.65, -0.14,0.41,0.22
2.41,-4.13,-9.29, -0.58,0.08,-0.07
3.57,-5.62,-9.44, -0.51,0.29,0.48
5.08,-4.46,-9.76, -0.31,0.65,0.73
3.90,-4.13,-10.49, -0.05,0.34,0.92
2.45,-6.33,-8.21, 0.15,-0.21,0.08
2.83,-5.82,-8.85, 0.12,-0.36,-0.30
1.70,-6.82,-7.54, 0.31,-0.67,-0.33
2.00,-5.02,-8.54, -0.21,0.07,0.14
1.28,-5.30,-8.34, -0.09,0.14,0.20
0.96,-5.37,-8.63, 0.38,-0.15,-0.23
1.47,-5.01,-8.01, -0.04,0.22,0.64
2.11,-6.29,-8.91, -0.01,0.01,0.61
0.90,-6.83,-8.34, -0.13,-0.17,-0.12
1.44,-6.43,-8.71, -0.05,-0.13,-0.33
1.47,-5.42,-8.55, -0.17,-0.03,-0.28
1.63,-6.14,-8.90, -0.24,0.00,-0.16
1.26,-5.15,-9.03, -0.39,-0.18,0.02
1.64,-5.94,-8.49, -0.44,0.10,0.33
1.24,-5.08,-9.47, -0.33,-0.01,0.01
2.55,-5.52,-8.45, -0.05,0.04,-0.20
1.24,-4.72,-8.54, 0.05,0.40,-0.47
4.67,-5.12,-9.05, 0.09,-0.54,0.86
6.40,-5.37,-9.53, 0.21,-0.53,0.66
1.43,-5.49,-8.89, -0.47,0.32,0.09
2.24,-4.42,-8.50, -0.27,0.73,-0.10
3.28,-4.78,-8.65, -0.12,1.00,-0.30
2.47,-4.57,-6.40, -0.16,0.82,-0.34
6.52,-5.67,-9.45, -0.00,-0.82,0.81
1.73,-5.66,-9.39, 0.04,0.31,-0.26
2.88,-5.73,-9.62, -0.08,0.18,0.31
3.26,-5.19,-8.75, 0.06,-0.15,-0.22
3.80,-5.94,-9.12, 0.20,-0.71,-0.47
2.35,-6.19,-8.62, -0.25,0.33,0.59
3.41,-5.09,-9.08, -0.22,0.16,0.54
1.75,-6.96,-8.14, 0.14,-0.30,-0.38
2.52,-7.03,-7.82, 0.18,-0.75,-0.85
2.49,-4.59,-9.83, -0.22,0.50,0.60
2.71,-6.36,-8.24, 0.15,-0.78,-0.67
1.57,-5.65,-8.67, 0.01,0.14,-0.05
2.46,-6.45,-8.38, -0.07,-0.08,-0.06
2.97,-5.16,-9.09, -0.02,-0.27,-0.27
1.70,-6.44,-8.33, -0.07,-0.06,-0.07
3.14,-4.94,-9.08, -0.15,0.16,0.31
1.59,-5.97,-8.78, -0.08,-0.11,-0.07
2.33,-6.11,-8.59, -0.15,0.07,0.17
2.57,-5.20,-9.33, 0.00,-0.27,-0.18
1.73,-6.47,-8.30, -0.01,-0.10,-0.14
2.87,-4.86,-9.34, -0.19,0.39,0.56
2.00,-6.27,-8.60, -0.10,-0.10,-0.12
2.60,-4.98,-9.26, -0.15,0.02,0.24
1.80,-5.71,-8.83, -0.04,-0.26,-0.18
1.88,-6.12,-8.82, -0.11,0.01,-0.08
2.50,-4.53,-9.37, -0.10,-0.10,-0.12
1.89,-5.91,-8.85, -0.03,-0.17,-0.12
2.12,-6.11,-8.81, -0.10,0.08,0.11
2.23,-5.13,-9.30, -0.09,0.05,0.15
2.50,-5.04,-9.40, -0.11,0.01,0.15
2.25,-6.28,-8.71, -0.09,-0.05,-0.04
1.94,-6.22,-8.41, -0.05,0.21,-0.15
3.46,-5.43,-8.53, -0.14,-0.04,0.29
1.95,-6.30,-8.44, -0.05,-0.08,-0.20
3.25,-5.61,-8.43, -0.18,-0.05,0.27
2.24,-5.82,-9.07, -0.06,0.04,-0.06
2.79,-5.46,-9.20, -0.08,-0.40,-0.27
2.75,-6.27,-8.54, -0.03,-0.38,-0.37
2.17,-5.67,-8.43, -0.06,-0.13,-0.12
2.53,-5.39,-9.15, -0.07,0.12,0.11
2.54,-5.83,-8.63, 0.10,-0.29,-0.41
2.72,-6.31,-8.19, 0.13,-0.63,-0.62
2.73,-6.14,-8.13, 0.18,-0.87,-0.62
1.78,-5.88,-8.56, 0.00,0.22,-0.06
3.05,-6.92,-8.44, -0.18,0.23,0.34
3.24,-3.44,-10.04, -0.22,0.18,0.52
2.91,-6.24,-8.53, -0.15,-0.57,-0.08
2.25,-5.44,-8.86, 0.15,-0.48,-0.51
1.99,-5.45,-8.76, 0.02,-0.20,-0.05
1.71,-5.84,-9.08, -0.12,0.03,0.12
1.99,-5.62,-9.07, -0.10,-0.11,0.13
3.28,-4.38,-9.05, -0.16,0.03,-0.01
2.67,-4.49,-9.45, 0.01,-0.04,0.24
2.65,-4.60,-9.79, -0.01,-0.15,-0.29
3.14,-5.36,-9.10, -0.15,0.30,0.27
3.39,-4.98,-8.98, -0.06,0.03,0.08
3.17,-5.75,-9.41, -0.03,-0.22,-0.24
3.02,-5.39,-9.60, -0.05,-0.42,-0.25
2.54,-4.53,-8.42, -0.14,-0.53,-0.34
2.67,-4.75,-9.85, 0.01,-0.21,-0.44
2.26,-5.04,-9.76, -0.06,-0.37,-0.42
1.83,-5.08,-9.21, 0.25,-0.56,-0.87
2.05,-5.26,-9.50, 0.08,-0.21,-0.37
3.37,-4.81,-9.24, -0.09,0.13,-0.19
3.52,-5.01,-8.92, -0.07,-0.04,-0.17
2.77,-4.72,-8.79, -0.14,0.05,0.14
2.21,-5.27,-9.03, 0.14,-0.04,-0.83
4.18,-4.09,-8.79, -0.27,-0.14,-0.12
3.57,-4.22,-9.45, -0.11,0.00,0.22
3.17,-3.57,-9.08, -0.21,-0.18,-0.44
2.71,-4.07,-8.96, -0.09,-0.07,-0.61
4.11,-4.58,-11.05, 0.09,-0.04,-0.84
3.96,-2.99,-10.08, 0.30,-1.03,-1.03
0.98,-4.98,-8.80, 0.80,-1.12,-0.41
-0.05,-6.22,-8.27, -0.16,-0.14,-0.21
0.32,-7.20,-7.55, -0.09,-0.32,-0.75
2.24,-4.55,-7.68, -0.39,-0.12,-0.29
0.90,-4.92,-9.75, -0.14,-0.30,-0.54
1.88,-3.51,-8.39, -0.28,-0.35,-0.37
0.01,-5.68,-10.24, 0.17,-0.10,-0.99
0.94,-4.02,-9.70, 0.20,-0.77,-0.60
1.80,-6.54,-10.81, 0.37,-1.32,-0.48
1.70,-5.58,-8.10, 0.43,-1.15,-1.09
2.68,-8.05,-8.88, -0.52,-0.12,-0.56
0.02,-7.60,-8.98, 0.06,-0.43,-1.34
0.58,-4.59,-9.60, 0.16,-0.57,-0.99
0.81,-5.51,-8.22, 0.30,-0.51,-0.66
0.69,-5.95,-10.15, 0.42,-0.15,-0.75
0.49,-5.88,-9.18, -0.22,0.25,-0.07
0.74,-6.09,-8.50, -0.52,0.13,0.01
1.11,-3.05,-9.43, -0.13,0.48,0.44
2.29,-4.90,-8.19, 0.32,0.07,-0.72
2.73,-6.23,-9.27, 0.22,0.24,0.01
2.48,-3.16,-10.01, 0.22,-0.21,-1.08
2.80,-3.09,-10.00, 0.07,-0.39,-1.08
2.50,-3.25,-8.93, 0.26,-0.94,-1.12
1.27,-5.77,-10.12, 0.86,-1.06,-1.06
3.06,-5.55,-7.86, 0.49,-1.27,-1.55
3.14,-6.39,-8.56, 0.01,-0.51,-1.83
4.78,-6.69,-8.69, -0.25,-0.33,-1.63
6.93,-1.90,-8.20, -0.04,-0.17,0.05
6.48,-0.85,-8.66, -0.31,0.37,0.02
7.73,-0.95,-8.24, -0.29,0.22,0.10
8.00,-0.90,-8.24, -0.24,0.11,0.06
6.97,-1.01,-7.70, -0.12,-0.03,0.08
7.29,-1.03,-8.18, -0.08,-0.03,0.10
7.13,-1.20,-7.74, -0.17,-0.07,0.06
7.27,-1.54,-7.44, -0.13,-0.02,0.03
6.93,-1.68,-7.76, -0.11,-0.06,-0.04
7.21,-0.66,-8.57, -0.03,0.10,0.10
7.56,-1.30,-6.69, -0.09,-0.43,-0.17
7.07,-1.56,-8.07, -0.09,-0.05,-0.07
7.03,-1.66,-7.94, -0.04,-0.02,-0.03
7.03,-0.76,-8.35, -0.05,-0.14,-0.02
6.88,-0.76,-8.28, 0.08,-0.23,-0.17
6.96,-0.93,-8.56, 0.04,-0.19,-0.11
6.49,-1.02,-8.20, 0.00,-0.17,-0.05
6.60,-1.09,-8.20, -0.04,-0.15,-0.00
6.36,-0.97,-8.79, -0.07,-0.10,0.01
6.29,-1.31,-8.45, -0.06,-0.12,-0.07
6.71,-1.03,-8.79, -0.07,-0.06,0.03
6.51,-1.06,-9.00, -0.06,-0.11,-0.07
6.52,-0.80,-9.04, -0.02,-0.18,-0.09
6.48,-0.79,-9.17, 0.02,-0.22,-0.21
6.17,-1.32,-8.17, 0.02,-0.18,-0.18
5.82,-1.55,-8.64, -0.01,-0.06,-0.09
6.17,-1.75,-8.83, -0.10,0.19,0.20
5.95,-1.46,-8.81, -0.15,0.11,0.26
6.33,-1.75,-8.18, -0.15,0.11,0.28
6.06,-1.60,-8.27, 0.02,-0.31,-0.21
6.64,-0.60,-9.13, -0.02,-0.14,-0.14
6.23,-0.53,-9.23, 0.02,-0.09,-0.18
6.51,-1.70,-7.32, -0.02,-0.05,-0.22
6.77,-0.60,-9.62, -0.08,0.29,0.35
5.91,-1.38,-8.89, 0.13,-0.73,-0.12
6.25,-0.57,-9.67, 0.13,-0.66,-0.12
3.39,-2.10,-9.64, 0.38,-0.38,0.12
2.26,-7.09,-9.38, -0.80,1.61,2.65
1.16,-5.84,-8.88, -0.97,1.02,2.39
2.63,-4.94,-7.98, -1.27,1.24,2.22
3.27,-3.48,-10.46, -0.58,0.20,0.81
3.14,-3.99,-9.41, -0.30,-0.16,0.78
3.75,-4.98,-9.55, -0.27,-0.48,0.63
3.07,-4.87,-8.39, 0.23,-0.43,-0.43
1.52,-5.26,-10.27, -0.49,0.31,0.16
3.25,-4.05,-9.85, -0.55,-0.20,0.06
2.96,-3.65,-9.44, -0.50,0.14,0.24
2.30,-2.86,-10.30, 0.01,0.19,0.03
2.71,-4.29,-10.09, -0.23,0.10,0.51
2.47,-3.06,-10.83, -0.05,-0.27,0.31
2.96,-2.88,-10.60, -0.30,0.11,0.53
4.48,-2.44,-9.23, -0.17,-0.45,0.28
3.44,-2.72,-10.48, 0.06,0.30,0.32
3.37,-3.48,-10.11, -0.22,-0.21,-0.06
4.29,-3.08,-9.10, 0.02,-0.11,0.04
4.10,-2.95,-8.76, 0.14,0.05,0.11
3.24,-3.03,-10.63, 0.09,0.41,0.51
3.48,-2.47,-8.27, -0.30,-0.09,0.16
4.01,-3.75,-9.79, 0.04,0.05,-0.14
4.36,-3.32,-9.00, 0.30,0.11,0.27
4.32,-3.62,-9.48, 0.43,0.10,0.20
2.54,-4.02,-10.03, -0.28,-0.24,-0.39
3.68,-3.45,-8.41, -0.48,-0.26,0.28
4.36,-3.70,-10.29, 0.12,0.08,0.07
3.86,-3.92,-8.48, -0.33,-0.70,-0.19
4.49,-1.83,-8.44, -0.17,-0.31,-0.16
3.67,-3.65,-9.57, 0.02,0.05,-0.02
3.68,-3.69,-9.53, 0.04,-0.24,-0.24
4.21,-2.34,-10.07, -0.01,0.03,-0.00
3.96,-2.89,-10.13, -0.03,-0.17,-0.31
3.95,-3.52,-9.57, 0.01,-0.29,-0.40
4.13,-2.22,-9.68, -0.17,-0.17,0.16
4.74,-2.87,-8.33, 0.01,-0.22,0.20
4.68,-3.16,-10.23, 0.27,0.11,-0.12
4.10,-3.11,-8.83, -0.25,-0.28,0.21
3.83,-3.48,-9.83, -0.38,-0.22,-0.23
4.24,-2.83,-9.11, -0.40,-0.27,-0.05
4.24,-2.49,-8.66, -0.20,0.15,0.26
3.65,-2.02,-10.39, -0.06,0.11,-0.02
4.00,-3.98,-9.19, 0.04,0.03,-0.07
4.57,-1.98,-9.17, 0.16,0.29,0.52
3.92,-2.56,-8.60, -0.27,-0.28,0.26
4.32,-2.77,-8.98, -0.27,-0.30,-0.05
4.64,-1.99,-10.12, 0.08,-0.09,-0.11
3.87,-3.23,-9.81, -0.13,-0.25,-0.14
3.71,-2.61,-10.37, -0.16,-0.11,-0.05
3.85,-2.37,-10.12, -0.08,-0.17,-0.21
3.73,-2.47,-10.42, -0.02,-0.01,-0.09
3.86,-3.31,-9.35, 0.20,0.02,0.11
3.73,-2.89,-10.26, 0.30,-0.29,-0.18
4.00,-3.49,-9.72, 0.28,-0.41,-0.44
3.28,-3.86,-9.06, -0.05,-0.22,0.34
4.47,-2.96,-8.37, 0.29,-0.64,0.30
3.77,-3.44,-10.07, 0.37,-0.36,-0.17
3.24,-4.16,-9.78, 0.25,-0.05,-0.11
3.66,-4.91,-8.94, 0.10,0.28,0.08
3.79,-5.15,-9.09, -0.11,-0.08,0.24
3.52,-5.25,-8.72, -0.23,-0.11,0.10
3.65,-4.42,-9.24, -0.14,-0.22,-0.25
3.36,-4.38,-9.56, 0.15,-0.42,-0.63
3.48,-4.20,-9.41, 0.08,-0.21,-0.58
3.95,-3.99,-9.79, 0.15,-0.23,-0.50
3.10,-4.84,-9.06, 0.31,-0.54,-0.31
2.82,-5.02,-8.76, 0.27,-0.78,-0.69
2.83,-5.49,-8.56, -0.07,-0.02,0.46
2.09,-6.29,-8.54, 0.04,-0.35,-0.17
1.80,-6.52,-8.07, 0.03,-0.33,-0.41
2.03,-6.90,-8.07, 0.00,0.22,0.00
1.61,-6.36,-7.90, -0.00,0.23,0.26
2.80,-5.71,-8.72, -0.06,0.03,0.69
1.97,-6.73,-7.95, -0.02,-0.20,-0.23
1.43,-6.82,-8.77, -0.11,-0.30,-0.31
3.44,-6.00,-8.28, -0.10,-0.19,0.40
1.90,-6.72,-7.86, 0.13,-0.54,-0.54
1.96,-7.02,-7.74, -0.16,-0.31,-0.59
1.72,-7.03,-8.26, -0.48,0.27,0.07
1.83,-6.99,-8.86, -0.37,0.28,-0.06
2.17,-6.08,-8.11, -0.25,-0.40,-0.51
3.30,-7.22,-9.04, -0.19,-0.48,-0.56
2.96,-4.21,-9.70, 0.14,-0.80,-1.42
2.84,-4.22,-9.79, 0.18,-0.74,-1.33
2.54,-4.49,-9.71, 0.19,-0.38,-0.88
2.15,-4.80,-9.51, 0.27,-0.29,-0.53
2.20,-5.30,-10.07, 0.31,-0.67,-0.36
2.86,-5.26,-8.93, 0.08,-0.43,0.09
2.03,-5.28,-9.12, -0.09,-0.07,0.04
2.62,-5.37,-9.97, 0.19,-0.26,-0.24
1.55,-5.05,-10.00, 0.31,-0.46,-1.01
1.43,-5.28,-9.80, 0.18,-0.24,-0.61
1.87,-4.89,-9.19, 0.02,-0.18,-0.42
1.62,-4.59,-9.90, 0.11,-0.48,-0.25
1.69,-5.81,-8.96, 0.12,-0.18,-0.33
2.41,-4.47,-8.42, -0.26,0.54,0.50
1.97,-4.60,-8.38, -0.20,0.14,0.52
3.37,-6.37,-10.32, -0.23,0.45,0.96
1.49,-7.95,-6.81, -0.45,0.59,0.62
3.39,-4.77,-8.60, -0.29,0.22,0.72
2.13,-5.40,-8.75, -0.03,0.04,0.15
1.37,-6.96,-10.29, 0.14,-0.38,-0.69
2.18,-6.27,-9.79, 0.02,0.22,0.35
3.43,-7.28,-8.98, 0.03,-0.33,0.65
2.26,-4.73,-6.61, 0.09,0.21,0.28
2.10,-6.35,-8.63, -0.23,0.12,0.18
2.11,-6.47,-8.13, -0.24,-0.24,-0.29
1.70,-6.56,-8.06, -0.23,-0.35,-0.34
3.05,-4.90,-9.80, -0.21,0.21,-0.03
3.58,-5.40,-8.97, 0.05,0.07,0.47
2.05,-5.39,-8.68, 0.09,0.14,0.09
2.57,-5.42,-7.87, -0.15,0.19,-0.01
2.35,-6.09,-7.79, 0.14,-0.43,-0.66
4.92,-6.63,-8.38, 0.25,-0.16,0.72
3.21,-6.90,-7.76, 0.27,-0.21,-0.17
3.51,-7.94,-7.43, -0.23,0.06,0.17
2.88,-6.73,-7.13, 0.11,-0.37,-0.48
2.58,-7.42,-6.54, -0.07,0.11,0.04
3.18,-7.93,-6.75, 0.02,0.11,0.02
4.78,-6.81,-6.86, -0.10,-0.09,-0.27
4.27,-6.92,-7.01, -0.15,-0.11,-0.19
4.83,-6.82,-6.95, -0.20,-0.13,-0.18
3.63,-6.55,-7.24, -0.24,0.15,0.27
5.08,-6.54,-7.21, -0.25,0.02,0.20
4.97,-7.36,-6.74, -0.12,-0.13,-0.03
4.38,-5.70,-6.96, -0.16,-0.02,-0.04
4.83,-7.11,-6.12, -0.33,0.33,0.36
4.30,-7.27,-6.39, -0.20,0.22,0.16
3.95,-6.90,-6.44, -0.25,0.48,0.43
3.38,-6.88,-6.52, -0.38,0.63,0.79
4.18,-7.81,-6.28, -0.26,0.42,0.61
4.05,-7.80,-6.20, -0.17,0.35,0.41
3.78,-7.67,-6.55, -0.10,0.10,0.16
3.97,-7.82,-6.60, -0.06,-0.02,0.03
4.79,-8.03,-6.12, 0.08,-0.09,-0.32
4.81,-7.54,-5.49, -0.06,0.13,-0.13
5.03,-6.36,-5.79, 0.14,-0.02,-0.30
5.15,-7.07,-6.40, -0.11,-0.26,-0.07
6.24,-7.06,-6.53, -0.12,-0.86,-0.85
4.52,-7.64,-6.40, 0.11,-1.21,-0.98
