AccX,AccY,AccZ,GyroX,GyroY,GyroZ
-3.03,7.99,3.62, -0.32,0.22,0.21
-3.73,7.26,3.52, -0.10,-0.91,-0.37
-2.29,8.00,4.89, 0.29,-0.46,-0.32
-2.16,6.98,3.71, 0.24,-0.52,-0.29
-1.48,9.35,3.77, 0.03,-0.41,-0.13
-3.52,6.06,2.88, -1.07,-0.08,0.53
-1.33,8.73,2.83, -0.17,-0.05,-0.00
-2.84,7.41,3.89, -0.16,0.23,0.05
-2.60,9.08,4.86, -0.23,0.54,0.35
-2.67,7.56,3.46, 0.05,0.06,-0.01
-1.81,8.02,4.02, 0.05,-0.02,0.09
-2.10,9.84,4.03, 0.17,-0.19,-0.14
-5.76,9.52,3.50, -0.91,0.29,0.27
-3.36,6.40,3.30, -0.44,0.47,0.37
-2.40,7.16,3.96, -0.35,0.58,0.39
-2.00,7.61,3.61, -0.32,0.46,0.42
-1.76,9.21,4.64, -0.40,0.81,0.47
-1.01,7.30,2.73, -0.23,0.28,-0.04
-0.95,6.81,2.38, 0.10,0.09,-0.36
-2.54,8.55,4.33, -0.13,0.06,-0.12
-1.68,7.72,3.99, -0.45,0.06,0.14
-3.33,8.23,3.86, -0.21,-0.06,-0.07
-2.57,6.77,3.14, -0.85,0.81,0.86
-1.88,8.79,3.68, 0.02,0.25,0.23
-1.54,7.24,4.05, 0.00,-0.31,-0.01
-2.31,7.24,4.27, 0.11,-0.45,-0.37
-3.34,7.70,3.85, 0.32,-0.74,-0.60
-2.60,7.95,3.85, 0.25,-0.98,-0.42
-2.31,7.78,4.76, 0.15,-0.59,-0.52
-2.81,7.03,4.55, 0.22,-0.73,-0.31
-3.24,7.90,4.57, 0.44,-0.81,-0.45
-2.08,7.54,3.69, 0.17,-0.31,-0.08
-1.95,7.81,3.63, 0.11,0.08,-0.13
-1.37,8.00,3.38, 0.13,0.29,0.16
-2.30,9.37,4.26, -0.39,0.73,0.31
-0.81,7.80,4.45, -1.19,0.90,0.52
-2.60,10.10,4.11, 0.10,0.08,0.07
-3.01,7.39,3.85, -0.14,0.71,0.23
-2.97,6.74,4.68, -0.21,0.75,0.12
-2.77,7.07,4.54, -0.28,0.47,0.13
-4.98,7.62,2.98, 0.16,-1.11,-0.56
-3.91,7.44,4.48, 0.54,-1.23,-0.83
-1.63,9.27,4.13, 0.54,-1.19,-0.53
-2.39,7.54,3.71, 0.57,-0.60,-0.54
-2.10,9.32,3.32, 0.67,-0.43,-0.53
-2.54,10.61,3.31, 0.11,0.34,-0.20
-4.26,8.71,3.18, -0.16,0.02,0.06
-3.67,6.26,3.15, -0.24,0.31,0.19
-4.12,7.57,4.00, -0.23,0.22,0.18
-2.15,8.74,3.35, 0.05,0.21,-0.02
-2.21,7.75,3.01, -0.17,0.17,0.12
-3.04,9.37,3.51, -0.33,0.15,0.06
-2.21,10.32,3.57, 0.38,-0.50,-0.38
-3.52,8.59,3.80, -0.00,0.09,-0.20
-3.61,7.09,3.96, -0.24,0.23,0.25
-3.76,7.97,4.69, -0.08,0.13,0.29
-2.76,6.45,3.00, -0.12,-0.27,0.06
-3.22,7.44,2.88, 0.18,-0.30,-0.03
-3.01,7.62,3.39, 0.25,-0.48,-0.29
-2.77,9.57,3.15, 0.03,-0.47,-0.27
-3.69,8.67,3.40, -0.97,-0.13,0.01
-3.40,6.17,2.80, -0.61,-0.11,0.06
-3.71,6.84,3.23, -0.51,0.34,0.27
-2.72,6.78,3.58, -0.43,0.61,0.24
-3.53,6.76,3.40, -0.55,0.82,0.45
-4.70,7.92,2.84, -0.63,0.55,1.11
-3.32,9.16,4.35, -0.84,0.56,0.40
-2.98,7.86,2.80, -0.89,1.11,0.73
-2.49,7.87,1.82, -0.11,0.41,-0.13
-3.36,7.91,2.92, -0.39,0.68,0.10
-3.53,7.64,3.16, -0.34,0.48,0.13
-2.83,7.88,3.63, -0.27,0.34,0.09
-3.34,8.83,3.90, -0.47,0.27,0.08
-4.83,8.66,2.40, -0.94,0.87,0.28
-5.25,6.09,2.96, -0.91,0.75,0.59
-4.62,7.46,3.72, -0.65,0.72,0.55
-5.33,5.90,2.89, -1.04,0.69,0.88
-4.57,6.94,4.19, -0.65,0.94,1.16
-1.13,8.62,3.07, 0.03,-0.08,0.29
-2.55,7.31,3.35, -0.21,-0.36,0.25
-3.12,9.23,4.81, 0.72,-0.65,-0.61
-2.44,7.82,3.36, 0.30,-0.32,-0.13
-3.18,7.55,2.66, 0.02,-0.49,-0.33
-4.77,7.85,5.04, 0.22,-0.37,0.12
-3.26,7.06,1.76, -0.37,0.25,0.43
-1.49,8.89,2.34, -0.01,0.02,0.04
-2.17,7.81,2.29, -0.28,-0.03,0.12
-1.43,9.06,2.85, -0.21,0.01,-0.12
-2.64,9.90,3.13, -0.44,0.42,-0.14
-4.00,7.09,2.06, -1.02,0.43,0.72
-2.83,7.02,3.30, -0.16,0.04,0.15
-3.95,6.98,2.93, -0.67,0.15,0.48
-2.39,8.39,3.84, -0.35,0.29,0.13
-3.07,9.25,3.67, -0.15,0.40,0.14
-2.45,7.36,3.57, -0.14,0.20,0.23
-2.88,7.55,2.98, -0.37,0.47,0.05
-2.82,8.94,3.62, -0.42,0.55,0.22
-2.16,8.04,3.75, -0.61,0.26,0.38
-2.59,9.32,4.41, -0.48,0.43,0.34
-2.94,10.29,3.41, 0.69,-0.21,-0.76
-4.38,7.62,3.34, -0.06,0.30,-0.00
-3.73,8.18,4.04, -0.09,0.38,0.11
-1.91,8.75,3.55, -0.32,-0.08,-0.09
-4.03,7.75,3.80, 0.06,-0.50,0.00
-2.93,8.64,5.15, 0.22,0.26,-0.12
-5.03,7.38,3.38, 0.04,-0.32,0.06
-1.63,8.89,3.44, 0.27,-0.70,-0.31
-1.68,8.80,3.10, 0.06,-0.16,-0.18
-2.81,6.46,3.91, -0.40,0.53,0.41
-2.62,7.98,2.73, 0.13,0.05,-0.09
-2.14,8.46,3.01, 0.08,0.22,-0.17
-2.56,7.48,3.07, -0.02,0.02,-0.11
-2.38,7.22,2.65, -0.27,-0.12,-0.11
-2.72,9.99,3.07, 0.12,0.06,-0.50
-3.10,6.54,2.52, -0.55,0.10,0.45
-2.80,7.01,3.23, -0.10,0.01,0.13
-2.63,8.00,4.00, -0.27,0.20,-0.03
-4.10,6.51,3.11, -0.60,0.75,0.65
-4.15,8.15,5.20, -0.07,0.03,-0.02
-4.95,9.79,3.57, 0.05,-0.02,-0.13
-2.39,6.67,2.77, -0.20,-0.26,-0.14
-2.93,6.95,2.81, 0.02,-0.36,0.04
-2.38,9.50,3.61, 0.15,-0.42,-0.38
-4.59,6.58,2.48, -0.97,0.11,0.49
-4.92,6.49,2.55, -0.55,0.40,0.64
-3.45,6.77,3.68, -0.11,0.12,0.19
-3.52,6.89,4.04, -0.14,0.06,0.22
-3.44,9.66,3.30, -0.16,-0.05,-0.04
-2.21,8.45,3.08, 0.03,0.13,-0.18
-2.56,7.87,2.08, -0.16,0.10,0.07
-2.08,9.53,2.82, -0.12,0.28,0.06
-2.23,6.25,4.06, -0.55,0.73,0.25
-1.47,8.88,3.58, 0.07,0.92,0.51
-2.16,7.21,2.19, -0.41,-0.27,0.19
-1.01,9.00,2.73, -0.01,-0.56,-0.14
-3.71,8.52,4.96, -0.01,0.05,0.13
-4.02,7.80,3.43, -0.26,-0.07,0.43
-2.76,8.08,3.48, 0.31,-0.18,-0.23
-2.06,7.52,3.09, 0.40,-0.18,-0.13
-3.53,7.96,3.26, 0.03,-0.04,-0.08
-2.09,7.48,3.77, 0.12,0.18,-0.16
-2.82,6.76,3.34, -0.20,0.21,0.50
-4.03,6.66,2.20, -1.40,0.52,1.00
-1.10,8.45,2.57, 0.00,-0.05,-0.40
-1.63,8.24,3.01, -0.15,-0.02,-0.33
-1.49,8.36,3.43, -0.14,0.02,-0.40
-2.65,7.84,2.92, -0.53,0.11,-0.17
-2.65,6.93,3.27, -0.37,0.49,0.04
-2.66,7.09,3.34, -0.39,0.89,0.54
-3.52,7.32,3.47, -0.43,1.07,0.54
-4.33,8.88,2.60, -0.68,1.28,0.66
-3.69,9.73,2.92, -0.25,0.84,0.28
-2.82,7.99,2.68, -0.17,0.85,0.17
-4.55,8.77,3.06, -0.76,0.61,0.44
-1.79,10.04,2.45, 0.30,0.15,-0.25
-3.83,7.82,1.14, -0.83,1.35,1.18
-1.77,8.49,2.13, 0.34,-0.00,-0.16
-5.25,7.69,1.44, 0.20,-1.24,0.51
-4.20,9.79,1.77, -0.38,0.12,0.11
-3.06,8.65,2.15, -0.67,0.30,0.21
-3.57,7.70,2.15, -0.73,0.51,0.77
-1.83,8.65,2.58, -0.02,-0.34,0.70
-1.62,11.02,3.33, -0.37,0.51,0.41
-0.62,12.11,0.70, -1.97,2.02,0.28
-3.38,11.30,3.18, -2.44,2.28,1.16
-4.02,7.17,5.33, -0.17,0.59,0.12
-2.22,7.62,4.88, 0.26,-0.19,-0.29
-3.45,5.93,3.77, 0.04,-0.46,0.26
-2.47,7.92,2.13, 0.76,-2.33,-1.17
-4.80,8.69,5.32, 1.33,-2.96,-1.78
-5.23,7.81,5.28, 1.28,-2.68,-2.01
-4.56,5.38,4.24, 0.27,-1.57,-0.72
-5.65,4.56,3.35, 0.15,-1.69,-0.57
-3.79,8.32,3.19, 0.76,-1.58,-1.38
-3.96,7.40,2.18, 0.48,-1.07,-0.42
-1.78,7.97,3.30, 0.39,-0.49,-0.27
-3.51,7.57,3.55, -0.00,-0.39,0.05
-2.45,9.11,3.47, 0.41,-0.54,-0.50
-2.77,7.24,3.16, -0.22,0.20,0.27
-1.90,8.87,4.36, -0.46,0.49,0.40
-3.42,8.08,4.24, 0.32,-0.36,0.31
-2.82,6.89,3.11, -0.08,-0.16,0.11
-2.90,9.62,3.41, 0.10,0.05,-0.42
-0.90,8.85,2.83, -0.17,0.15,0.04
-4.54,7.94,2.90, -0.48,0.27,0.23
-3.01,7.15,4.89, -0.23,0.55,0.16
-2.10,7.10,2.43, -0.44,0.33,0.36
-1.11,7.03,3.71, -0.31,0.59,0.19
-2.55,7.09,2.75, -0.58,0.48,0.32
-1.44,6.53,3.84, -0.95,0.11,0.79
-1.88,7.90,2.88, 0.01,0.23,0.02
-2.45,8.07,3.96, -0.28,0.33,0.08
-8.68,11.54,4.60, -0.66,1.13,0.66
-3.08,7.28,2.72, -0.42,0.52,0.62
-2.82,7.79,3.32, -0.17,0.41,0.32
-2.94,8.45,4.43, -0.44,0.15,0.31
-6.58,9.64,4.16, 0.89,-0.52,-0.64
-3.24,8.45,4.18, 0.32,-0.28,-0.11
-3.96,5.86,3.16, -0.62,0.31,0.60
-2.58,5.04,2.20, -0.48,0.03,0.48
-2.55,6.45,2.98, -0.24,0.03,0.23
-2.98,9.26,2.56, 0.41,-0.39,-0.48
-5.07,8.98,1.80, 0.25,-0.59,-0.38
-3.98,5.40,2.16, -1.24,0.43,0.88
-2.27,8.94,3.87, -0.12,0.25,-0.08
-2.56,7.77,2.85, 0.16,-0.08,-0.06
-2.31,8.90,3.17, -0.02,0.09,0.05
-2.84,8.55,3.96, -0.66,0.19,0.18
-0.30,12.08,4.89, 0.88,-0.19,-0.75
-2.71,11.57,1.73, 0.54,-0.60,-0.99
-2.37,9.26,3.28, 0.23,-0.65,-0.75
-3.13,6.85,3.07, -0.31,0.14,0.37
-0.85,8.77,2.11, -0.17,-0.09,0.18
-1.38,7.97,2.50, -0.03,0.00,0.11
-1.83,7.94,3.22, -0.01,-0.18,-0.03
-2.03,8.35,3.69, -0.05,-0.35,-0.11
-1.88,9.19,4.03, -0.04,-0.42,-0.38
-4.46,7.69,5.11, -0.90,0.99,0.78
-4.32,7.65,2.77, -0.36,0.44,0.43
-1.94,8.53,2.75, -0.14,0.13,0.10
-3.63,7.58,2.04, -0.32,-0.11,0.09
-6.54,8.36,1.19, -0.58,-0.11,0.60
-3.43,6.33,2.38, -0.64,0.11,0.32
-2.36,7.76,2.82, -0.23,0.49,0.24
-4.27,7.70,4.24, -0.43,0.28,0.12
-3.38,7.31,3.46, -0.25,0.25,0.01
-2.22,8.79,2.64, -0.15,0.30,0.10
-2.48,8.75,2.96, -0.16,0.49,0.15
-2.86,6.66,2.53, -0.20,0.45,0.24
-2.44,9.11,2.78, -0.23,0.60,-0.04
-4.41,7.98,1.83, -0.96,1.05,0.83
-5.33,9.95,3.36, -0.39,1.07,0.55
-3.70,7.80,1.84, 0.46,-1.06,-0.45
-4.01,7.98,2.11, 0.64,-1.48,-0.90
-3.06,7.82,2.98, 0.79,-1.09,-1.08
-2.32,8.19,3.51, 0.42,-0.84,-0.32
-3.20,7.66,2.71, -0.05,-0.69,-0.05
-3.48,9.71,3.13, 0.32,-0.91,-0.31
-3.54,7.12,2.93, -0.26,-0.51,0.16
-6.57,6.93,1.89, 0.19,-0.75,-0.35
-4.25,8.96,2.45, 0.26,-1.03,-0.40
-3.11,7.98,3.28, 0.07,-0.46,-0.13
-3.55,7.44,3.14, 0.10,-0.55,-0.24
-3.79,8.72,3.79, 0.08,-0.48,-0.14
-3.85,6.83,3.16, -0.00,-0.46,-0.05
-3.40,8.90,3.15, 0.18,-0.51,-0.03
-2.79,7.97,3.01, -0.08,-0.15,-0.06
-2.58,8.27,2.52, -0.10,-0.27,-0.07
-1.87,7.09,3.90, -0.22,0.49,0.25
-4.42,8.18,4.16, 0.03,0.13,-0.14
-5.60,7.91,4.43, -0.38,-0.03,0.41
-4.87,8.77,4.44, -0.18,0.34,0.11
-2.10,7.18,3.42, -0.28,1.25,0.50
-1.97,8.52,3.23, 0.09,1.10,0.13
-3.53,8.36,3.35, -0.08,0.67,0.31
-2.43,9.35,2.74, -0.10,0.52,0.22
-4.74,9.49,1.77, -0.73,0.66,0.43
-3.15,8.04,2.15, -0.32,-0.14,0.32
-2.17,7.17,2.72, -0.49,0.90,0.27
-2.66,8.77,4.18, -0.34,0.87,0.10
-2.34,7.86,2.34, -0.47,0.63,0.14
-1.12,7.87,4.28, 0.07,-1.67,-0.62
-2.59,8.65,5.86, 0.17,0.81,-0.29
-2.25,7.45,3.34, -0.01,0.20,0.24
-2.23,7.98,3.36, 0.08,-0.16,-0.10
-2.43,7.85,4.18, -0.06,-0.11,-0.12
-4.52,8.65,1.07, -1.13,0.93,0.37
-2.40,8.20,3.26, -0.24,0.56,0.07
-4.96,7.04,2.59, -1.13,0.14,0.96
-0.26,8.66,4.19, 0.27,-0.31,-0.36
-3.25,8.38,3.69, -0.01,-0.01,-0.04
-3.10,9.63,4.58, -0.34,0.69,0.38
0.68,7.90,3.26, 0.95,-1.07,-0.83
-2.05,6.83,3.85, 0.19,-0.18,-0.41
-2.61,8.96,3.64, 0.05,-0.43,-0.12
-4.04,10.09,4.01, -0.48,1.26,0.57
-2.74,7.54,5.62, 0.11,-0.02,-0.41
-2.52,7.14,5.15, -0.20,0.14,0.05
-4.17,7.03,5.00, -0.56,-0.03,0.05
-1.66,7.04,4.35, 1.11,-1.29,-1.07
-2.68,8.96,4.25, 0.47,-0.08,-0.35
-2.27,6.59,3.07, 0.57,-0.49,-0.37
-2.38,8.40,4.02, 0.48,-0.37,-0.44
-4.68,9.04,3.58, 1.09,-1.74,-0.99
-0.99,7.31,3.70, -0.14,0.50,-0.24
-1.44,8.83,4.07, 0.22,-0.45,-0.19
-2.17,9.48,3.80, 0.54,-0.29,-0.38
-4.08,6.47,2.72, -1.57,1.48,1.17
-1.31,8.06,3.72, 0.49,-0.30,-0.39
-1.52,8.23,2.89, -0.54,0.69,0.11
-5.31,6.78,3.30, -0.73,0.18,0.28
-2.61,8.46,3.52, 0.51,0.22,-0.35
-3.15,7.53,3.35, -0.45,0.67,0.71
-2.71,7.63,3.56, 0.02,-0.25,-0.43
-1.06,8.24,3.34, -0.20,-0.18,0.03
-5.36,7.75,2.40, -0.56,0.09,0.11
-2.98,8.64,3.51, 0.10,-0.03,0.16
-1.76,9.00,2.80, -0.10,0.42,0.03
-1.40,7.59,4.01, -0.07,-0.02,0.08
-2.66,8.95,5.38, 0.00,-0.08,0.07
-2.09,9.93,4.58, 0.18,0.28,-0.79
-2.94,9.39,3.87, 1.01,-1.11,-1.25
-4.21,11.77,3.38, 0.28,0.22,0.11
-3.10,6.69,3.53, -0.26,0.10,-0.05
-3.36,10.10,4.59, 0.18,0.14,-0.50
-1.46,9.75,4.34, 0.28,0.29,-0.21
-3.13,9.02,4.84, -0.41,0.17,0.19
-0.57,6.65,2.81, -0.07,-0.11,-0.27
-5.74,6.82,4.32, 0.86,-0.33,-0.37
-2.95,5.43,3.40, -1.14,0.40,0.48
-3.79,9.15,4.81, 0.57,0.35,-0.26
-1.70,7.80,3.76, 0.19,-0.32,-0.44
-4.75,6.95,4.72, -0.03,-0.13,0.20
-3.62,5.99,3.11, -0.99,0.20,0.73
-4.10,7.02,3.07, -0.24,-0.14,0.07
-3.11,6.21,2.80, 0.39,-0.29,-0.41
-3.40,7.87,2.51, -0.07,-0.02,-0.05
-2.58,10.10,4.30, -0.04,0.35,-0.24
-2.46,6.72,3.72, 0.19,0.24,-0.08
-3.23,9.91,5.26, 0.13,0.72,0.05
-1.28,8.64,3.55, 0.39,-0.30,-0.59
-2.37,9.26,5.15, 0.26,0.20,-0.25
-3.35,9.94,4.28, 0.06,-0.10,-0.33
-2.17,7.58,2.83, 0.15,-0.04,-0.63
-2.80,8.84,3.06, -0.15,0.10,0.02
-3.19,6.99,3.70, -0.22,0.02,0.09
-3.81,9.67,3.75, 0.24,0.09,-0.29
-3.61,7.55,3.62, 0.10,-0.21,0.13
-3.07,9.32,5.62, 0.32,0.13,-0.11
-1.67,8.50,2.91, 0.43,-0.26,-0.64
-2.96,9.71,3.60, -0.51,0.01,0.25
-0.91,7.51,3.81, 0.33,-0.72,-0.13
-2.35,8.60,4.88, 0.41,0.31,-0.20
-2.36,8.42,3.43, 0.20,-0.03,-0.57
-3.08,8.56,4.53, -0.13,-0.09,-0.20
-2.44,8.90,5.75, -0.02,0.42,-0.06
-1.92,8.94,5.52, 0.03,-0.16,-0.11
-2.55,9.45,4.31, 0.33,0.36,-0.21
-4.09,6.96,2.90, -1.04,0.53,0.71
-2.91,8.52,4.72, 0.05,0.11,0.04
-2.80,8.73,4.39, 0.23,-0.08,0.06
-4.66,6.37,3.00, -0.35,-0.09,0.16
-3.31,8.35,3.62, -0.37,-0.17,-0.01
-3.92,11.63,3.28, 0.95,-0.79,-0.69
-2.29,8.28,4.49, 0.67,-0.29,-0.53
-2.04,9.71,3.54, 0.40,-0.07,-0.18
-2.01,6.28,3.42, -0.20,-0.13,-0.44
-3.55,8.53,4.01, -0.16,0.05,-0.06
-3.06,12.37,3.50, 1.28,-0.75,-1.35
-4.44,6.23,2.89, -0.82,0.45,0.32
-2.65,5.37,2.87, -0.04,0.49,-0.94
-3.83,11.62,2.35, 1.31,-1.24,-1.12
-2.30,7.93,4.70, 0.10,0.67,0.06
-2.71,9.55,3.32, -0.10,0.16,-0.23
-5.94,12.07,3.61, 1.10,-1.29,-0.98
-2.64,7.06,4.67, -0.15,0.62,0.12
-3.79,7.81,2.30, -0.29,0.17,0.01
-2.57,7.98,4.18, 0.06,0.33,-0.01
-1.89,8.86,4.61, 0.14,0.21,-0.19
-2.50,8.32,2.98, 0.37,-0.26,-0.77
-2.40,8.02,3.13, 0.34,-0.26,-0.52
-1.01,7.76,3.02, -0.33,0.96,-0.57
-4.37,7.23,3.94, 0.03,-0.10,-0.12
-1.65,6.89,3.83, 0.23,-0.04,-0.24
-2.16,8.77,4.90, -0.03,0.43,0.11
-1.22,8.43,3.33, -0.05,-0.16,-0.12
-3.11,9.11,4.50, 0.11,0.17,-0.52
-1.93,11.27,3.07, 1.11,-1.16,-1.06
-3.60,6.36,3.39, -0.03,0.53,0.09
-3.67,9.76,5.26, 0.19,0.43,-0.30
-2.63,7.23,4.58, -1.09,0.91,1.07
-0.52,8.13,3.34, -0.29,0.35,0.14
-3.47,6.84,4.06, -0.65,0.47,0.30
-1.17,8.81,4.05, 0.03,-0.39,-0.29
-4.18,7.08,4.36, 0.15,-0.19,0.17
-4.59,8.39,4.29, 0.20,-0.16,-0.00
-2.67,9.56,3.99, -0.87,1.30,0.31
-4.76,9.59,4.31, -0.42,1.11,0.51
-1.91,7.04,2.42, -0.53,0.52,0.26
-3.97,6.81,3.74, -0.23,-0.10,0.07
-3.56,10.63,4.01, 0.40,-0.34,-0.71
-6.00,7.52,3.62, -1.40,0.65,0.73
-4.26,8.84,6.03, 0.11,-0.15,-0.17
-3.28,9.02,5.05, -0.19,0.10,-0.21
-2.58,8.86,5.85, -0.03,0.30,0.16
-3.43,7.49,4.61, 0.06,-0.86,-0.17
-4.24,8.91,3.93, 0.33,-0.24,-0.28
-3.28,7.83,4.34, 0.24,-0.43,-0.21
-2.93,8.11,4.10, 0.09,-0.00,-0.01
-2.46,4.87,2.18, 0.59,-1.15,-1.00
-2.33,6.83,2.93, 0.33,-0.84,-0.65
-3.21,7.07,4.44, -0.77,0.05,0.64
-2.82,7.72,4.38, -0.03,0.30,0.09
-2.91,8.97,4.51, 0.07,0.07,-0.24
-3.03,7.01,4.28, 0.52,0.33,-0.30
-3.75,7.08,4.38, 0.28,0.18,-0.33
-2.98,7.34,3.76, 0.41,0.43,-0.56
-3.85,8.36,2.21, 0.31,0.41,-0.39
-4.39,6.52,2.72, -0.90,0.03,0.20
-1.01,10.41,6.41, -0.18,-0.34,-0.24
-4.28,8.86,4.44, 0.42,-0.16,-0.25
-2.36,9.11,5.21, 0.33,0.27,-0.36
-1.16,5.90,3.16, -0.08,0.04,-0.20
-3.45,6.82,3.74, -0.46,0.38,0.21
-4.51,10.46,3.41, 0.82,-1.06,-0.69
-3.90,6.57,3.66, 0.12,0.06,-0.02
-1.57,10.83,5.77, 0.21,0.73,-0.32
-2.68,9.96,3.34, 0.57,-0.55,-0.65
-1.58,7.74,4.36, 0.35,0.14,-0.27
-2.55,6.74,4.19, 0.18,0.48,-0.04
-3.38,9.12,5.70, 0.35,0.55,-0.25
-1.75,7.65,2.60, -0.21,-0.12,-0.09
-3.00,6.85,3.50, -0.16,0.17,-0.08
-1.88,9.37,5.70, 0.22,0.24,-0.32
-1.49,8.95,3.44, 0.10,0.34,-0.24
-2.77,7.12,4.08, -0.69,0.28,0.42
-4.64,8.96,3.26, -0.57,0.42,0.15
-4.14,7.28,3.70, -0.94,0.44,1.09
-1.57,9.55,3.39, -0.26,0.21,0.25
-1.65,9.64,5.45, 0.02,0.57,-0.38
-1.67,8.16,3.52, -0.01,-0.04,-0.21
-3.59,7.12,2.87, -0.30,0.07,0.27
-2.96,10.05,4.17, 0.19,0.19,-0.06
-1.33,7.87,2.69, 0.53,-0.65,-0.38
-2.52,8.85,5.58, -0.02,0.57,-0.01
-1.88,8.10,3.09, -0.03,-0.07,-0.36
-1.79,8.45,3.61, 0.02,-0.09,-0.12
-2.85,9.94,4.56, 0.18,-0.15,-0.46
-2.88,6.49,3.86, 0.04,0.09,0.01
-1.47,9.47,4.81, 0.16,0.16,-0.38
-1.01,7.71,3.43, -0.14,-0.32,-0.07
-2.56,9.50,3.42, 0.73,-0.94,-0.52
-3.92,5.97,2.89, -0.30,0.05,0.55
-4.50,8.89,4.15, 0.08,0.05,-0.19
-1.75,7.11,2.66, -0.04,0.00,-0.21
-3.45,9.30,3.60, -0.05,0.06,-0.10
-1.59,7.57,4.27, 0.10,-0.07,-0.21
-1.91,7.65,3.22, -0.00,-0.19,-0.14
-2.96,9.72,4.38, -0.01,-0.09,-0.37
-2.55,6.83,3.00, 0.02,-0.31,-0.15
-2.62,9.07,5.30, -0.15,-0.08,-0.20
-7.71,7.24,4.20, -1.29,0.26,0.56
-4.16,5.01,3.30, -0.21,-0.48,0.35
-1.63,7.79,4.34, -0.13,0.11,0.20
-3.62,7.87,5.74, -0.01,0.15,-0.11
-1.81,7.82,3.49, 0.08,-0.21,-0.22
-2.11,8.65,5.33, 0.11,0.23,0.00
-7.04,6.72,4.99, -0.17,-0.13,0.26
-3.45,6.86,3.35, 0.17,-0.05,-0.66
-2.46,7.88,3.58, 0.24,-0.19,-0.40
-2.46,7.27,3.64, -0.08,0.36,0.34
-3.56,7.32,3.48, -0.15,-0.09,-0.11
-2.39,9.65,4.15, 0.06,-0.03,-0.37
-2.20,6.88,3.50, 0.21,-0.08,-0.26
-2.86,8.54,4.12, 0.13,0.10,-0.07
-2.30,8.10,3.90, 0.10,-0.35,-0.38
-2.44,7.97,3.66, 0.15,-0.36,-0.28
-2.94,7.04,3.66, -0.11,-0.25,-0.12
-3.01,8.34,4.47, 0.07,-0.16,-0.38
-3.14,6.62,4.39, 0.09,-0.14,-0.15
-3.23,6.31,3.96, 0.08,-0.01,-0.03
-2.71,8.92,5.84, 0.15,0.27,-0.22
-2.87,9.08,4.22, 0.17,-0.10,-0.44
-3.81,6.16,3.75, 0.53,-0.72,-0.43
-3.79,7.40,2.84, -0.04,-0.36,0.36
-1.64,7.27,2.75, -0.09,-0.54,-0.08
-4.32,8.43,3.61, -0.41,0.26,0.03
-2.50,6.57,3.73, -0.10,0.09,0.02
-3.68,6.00,4.11, -0.80,0.27,0.47
-3.07,9.09,4.50, 0.18,-0.33,-0.40
-2.49,7.18,4.24, -0.18,0.23,0.13
-4.00,7.23,2.90, -0.33,-0.26,0.02
-2.95,9.94,4.23, 0.18,-0.23,-0.52
-5.01,7.81,3.14, -0.78,0.46,0.26
-2.62,10.24,3.32, 0.90,-1.09,-1.00
-2.98,7.40,3.92, 0.11,0.03,-0.19
-3.82,6.47,4.66, -0.00,-0.03,-0.13
-3.76,6.30,3.53, -0.23,-0.05,0.16
-3.94,8.28,3.08, -0.01,-0.09,-0.14
-1.66,7.01,2.97, -0.39,-0.28,0.17
-0.46,6.90,3.29, -0.19,0.48,-0.62
-2.64,7.03,3.32, -0.47,0.19,0.15
-2.74,9.41,5.40, -0.20,0.82,0.11
-1.01,8.51,2.53, -0.25,0.09,0.15
-4.53,9.13,3.46, 0.38,-0.91,-0.48
-6.58,8.32,4.48, -0.38,0.55,0.29
-4.37,9.83,4.09, -0.18,0.01,-0.24
-2.76,6.84,4.47, 0.14,0.35,0.04
-2.44,7.26,3.96, 0.24,-0.19,-0.31
-3.46,9.55,5.92, 0.11,0.63,0.03
-1.38,7.07,3.60, -0.08,-0.13,-0.24
-2.79,6.81,3.67, -0.37,0.01,-0.14
-4.14,9.68,5.37, -0.24,-0.04,-0.32
-3.01,7.88,6.35, 0.06,0.24,0.02
-4.46,8.84,4.41, -0.15,-0.07,-0.23
-2.79,9.45,5.53, 0.38,0.60,-0.50
-3.68,8.48,4.67, -0.34,0.03,0.01
-3.07,7.42,4.12, 0.23,-0.07,-0.18
-3.01,9.23,6.32, -0.01,0.25,-0.00
-3.62,6.45,4.51, -0.46,0.24,0.39
-1.64,6.00,3.08, 0.30,-0.11,-0.84
-2.90,6.63,3.39, 0.15,-0.01,-0.12
-1.81,7.85,4.76, 0.14,0.09,-0.24
-3.86,7.28,3.79, -0.43,0.35,0.54
-0.82,8.56,5.15, -0.22,0.45,0.09
-1.81,7.78,3.26, -0.13,0.02,0.04
-3.56,7.16,3.55, -0.37,0.06,0.29
-2.24,10.29,4.23, 0.22,0.05,-0.42
-4.04,8.56,3.88, -0.40,-0.59,0.03
1.31,4.15,3.60, -0.48,-0.55,0.06
-4.29,9.44,4.70, 1.05,-0.93,-0.61
-2.20,7.09,5.05, 0.44,-0.17,-0.26
-3.11,6.85,3.99, 0.23,0.11,0.01
-3.40,9.63,5.96, 0.33,0.51,-0.06
-0.75,7.47,3.08, -0.28,-0.04,0.08
-2.55,7.00,3.64, -0.45,0.11,-0.06
-3.22,10.52,5.92, 0.15,0.62,-0.10
-2.60,8.32,3.86, 0.19,-0.25,-0.72
-0.67,7.65,4.10, 0.15,-0.05,-0.18
-3.44,5.39,3.33, -0.04,0.13,0.15
-3.92,9.79,4.24, 0.03,-0.11,-0.35
-2.49,6.79,4.25, 0.08,0.04,-0.01
-2.55,10.47,6.60, 0.02,0.84,-0.24
-4.02,8.00,3.50, -0.91,0.66,1.01
-3.85,10.41,4.00, 0.16,0.22,-0.32
-2.37,7.58,4.01, 0.13,-0.20,-0.24
-1.58,8.62,3.77, 0.09,0.22,-0.03
-2.83,7.61,4.04, 0.13,0.28,-0.08
-2.68,10.30,5.67, 0.22,0.64,-0.37
-1.59,8.00,3.35, -0.02,-0.33,-0.27
-4.69,8.56,3.34, 0.58,-0.99,-0.75
-3.17,8.23,5.60, -0.05,0.57,0.07
-2.77,7.35,3.20, 0.14,-0.33,-0.37
-3.11,8.75,3.33, -0.20,0.18,0.13
-4.35,6.47,3.36, 0.04,0.16,0.09
-3.47,5.92,3.65, -0.38,-0.18,0.53
-3.84,8.63,2.76, 0.17,0.21,-0.25
-4.26,9.03,3.51, -0.09,0.79,0.29
-2.43,6.76,2.83, 0.23,-0.42,-0.31
-4.52,7.26,2.22, 0.05,-0.40,-0.25
-2.01,8.49,2.48, 0.47,-0.62,-0.89
-3.09,6.25,4.28, -0.03,0.35,0.21
-3.40,7.53,3.34, 0.04,-0.24,-0.27
-4.05,10.07,2.95, 0.20,-0.32,-0.40
-1.04,7.53,1.37, 0.29,-0.55,-0.73
-2.75,8.64,3.63, -0.01,0.47,0.04
-3.48,6.46,3.39, -0.29,0.34,0.42
-3.02,6.91,2.46, -0.53,0.97,-0.56
-1.63,8.53,3.21, 0.09,-0.59,-0.12
-3.58,6.96,4.07, -0.01,0.11,0.10
-1.64,6.89,3.55, 0.15,-0.50,0.08
-2.73,9.63,3.58, 0.12,-0.15,-0.41
-3.44,6.32,3.44, -0.15,0.16,-0.20
-3.00,6.62,3.94, 0.08,-0.04,-0.18
-3.27,8.01,4.85, -0.09,0.01,0.26
-1.39,6.98,3.45, -0.24,-0.09,-0.13
-4.86,9.61,2.62, -0.07,0.22,0.00
-4.29,6.45,3.68, -0.28,0.29,0.28
-3.57,8.66,5.12, -0.38,0.94,0.44
-1.43,8.89,3.41, 0.01,0.06,-0.30
-2.23,9.05,4.52, -0.17,0.44,0.17
-3.88,6.57,3.81, 0.24,-0.34,-0.07
-3.62,10.39,5.18, 0.36,-0.06,-0.21
-1.76,12.62,5.41, -0.15,-0.11,1.06
-1.68,8.75,3.51, 0.21,-0.34,-0.32
-3.19,8.04,3.68, 0.14,-0.07,-0.40
-5.91,9.19,3.45, 0.72,-0.43,-0.65
-2.94,7.65,3.30, 0.26,-0.01,-0.23
-3.23,7.47,2.77, 0.06,-0.32,0.06
-1.75,10.36,5.87, 0.18,0.33,-0.51
-3.31,9.21,3.70, -0.08,0.07,-0.16
-3.59,6.29,4.36, -0.20,0.07,0.05
-2.52,7.22,2.95, 0.00,0.07,-0.29
-1.00,6.50,3.68, 0.22,0.17,-0.25
-1.20,8.19,4.44, 0.22,0.54,-0.30
-3.98,9.09,4.62, 0.11,0.10,-0.35
-4.31,7.09,3.75, -0.21,0.59,0.22
-3.90,6.50,3.13, -0.45,-0.18,0.21
-2.61,6.82,4.09, -0.29,-0.08,0.40
-2.52,9.99,6.07, -0.11,0.51,-0.16
-1.34,7.78,3.34, -0.19,0.13,0.16
-3.49,6.99,3.45, -0.20,0.04,0.12
-2.99,9.04,4.81, -0.01,-0.23,-0.24
-4.66,9.89,3.69, 0.60,-0.73,-0.73
-3.60,5.55,4.38, -0.84,0.70,0.72
-3.42,9.63,4.60, 0.22,-0.02,-0.38
-3.89,5.61,3.27, 0.16,-0.23,-0.00
-4.06,5.76,3.69, 0.02,-0.03,0.01
-2.80,6.67,3.67, -0.26,-0.13,0.14
-3.11,10.69,3.89, 0.10,-0.15,-0.34
-3.36,7.10,3.35, -0.29,0.28,0.13
-2.09,6.82,3.26, 0.59,-0.69,-0.52
-3.55,6.72,3.76, -0.33,-0.08,0.11
-2.78,9.51,6.00, 0.02,0.21,-0.28
-1.96,7.83,3.99, -0.89,0.84,0.57
-3.61,6.97,2.92, -0.31,0.22,0.24
-2.42,6.32,2.74, 0.62,-0.51,-0.58
-4.03,5.67,4.29, -0.10,0.07,0.15
-2.56,8.96,2.91, 0.18,-0.34,-0.39
-2.06,9.46,2.55, 0.24,-0.52,-0.51
-2.87,6.29,4.47, -0.11,0.26,-0.15
-2.98,6.70,3.55, -0.38,0.15,0.06
-4.09,10.25,3.73, -0.13,0.13,-0.09
-1.99,6.84,3.69, -0.04,0.23,0.01
-2.50,9.03,3.71, -0.10,0.41,0.01
-2.39,6.43,2.59, -0.03,-0.38,-0.25
-2.60,9.27,4.15, -0.36,0.48,0.09
-2.52,9.31,5.13, -0.09,0.44,-0.11
-1.85,7.49,2.85, 0.01,0.11,-0.11
-4.04,8.81,4.66, -0.06,0.04,-0.04
-3.99,8.92,3.97, -0.66,0.07,0.24
-3.23,7.11,4.30, -0.08,0.08,0.00
-2.95,7.59,5.10, -0.18,0.43,-0.02
-5.97,5.71,3.64, -0.79,0.22,0.90
-5.50,7.93,4.04, -0.00,-0.19,0.02
-2.65,7.64,3.82, -0.38,-0.71,0.61
-4.11,8.40,3.79, 0.07,-0.09,-0.08
-3.07,7.57,3.56, 0.09,-0.07,-0.25
-4.61,8.74,3.75, -0.15,-0.31,-0.04
-3.38,8.67,4.68, -0.20,0.13,0.21
-2.78,7.81,4.03, -0.26,0.37,0.24
-3.73,6.48,3.96, -0.32,0.05,0.19
-3.89,6.66,3.79, -0.07,-0.10,-0.03
-4.16,6.85,3.60, 0.00,-0.37,-0.15
-3.29,6.99,3.39, 0.19,-0.25,-0.34
-3.27,8.57,4.21, 0.26,-0.24,-0.43
-3.21,8.72,4.39, 0.09,-0.23,-0.32
-3.68,6.96,3.59, -0.01,-0.16,-0.17
-4.70,9.18,4.34, -0.09,-0.39,-0.08
-4.41,6.53,3.69, -0.42,-0.31,0.23
-3.52,8.18,4.12, -0.13,-0.48,0.07
-4.64,6.42,3.64, -0.03,-0.50,0.02
-4.01,6.50,4.25, 0.06,-0.27,-0.15
-3.79,6.73,4.34, -0.10,0.22,-0.17
-4.91,6.68,4.05, -0.30,-0.03,0.11
-4.22,6.52,4.23, -0.01,-0.14,-0.18
-4.45,7.05,4.38, 0.02,-0.13,-0.14
-4.53,6.84,4.66, 0.09,-0.10,-0.17
-4.61,6.96,4.64, -0.11,-0.04,0.25
-5.40,7.56,4.54, -0.03,-0.17,0.12
-4.21,8.02,3.76, 0.10,-0.22,0.08
-4.08,6.75,3.48, 0.01,-0.44,-0.06
-3.94,6.67,3.63, 0.10,-0.46,-0.13
-3.35,8.58,3.65, 0.35,-0.58,-0.27
-4.15,7.55,2.90, 0.35,-0.76,-0.38
-2.77,8.37,3.01, 0.15,-0.62,-0.22
-3.23,7.53,2.57, 0.11,-0.53,-0.23
-2.96,9.02,3.08, -0.03,-0.29,-0.22
-3.53,6.99,3.17, 0.03,-0.26,-0.42
-2.26,9.43,3.44, -0.15,-0.04,-0.05
-2.52,8.90,3.99, -0.17,-0.21,-0.08
-3.00,7.05,3.78, 0.02,-0.74,-0.24
-2.54,8.27,5.45, 0.28,-0.65,-0.85
-4.84,7.35,5.94, 0.25,-0.13,-0.28
-1.93,6.33,3.63, -0.04,-0.07,-0.17
-2.59,8.83,3.07, 0.27,-0.21,-0.30
-3.73,8.11,4.43, -0.03,0.29,0.08
-2.35,7.43,4.03, -0.00,0.00,-0.12
-4.30,8.84,3.93, -0.11,-0.22,-0.27
-2.65,8.77,5.96, 0.19,0.29,-0.09
-4.50,5.87,3.32, -0.68,0.17,0.34
-2.60,8.94,5.31, 1.04,-1.03,-0.61
-2.52,9.33,5.77, 0.31,0.03,-0.06
-1.55,6.38,3.34, 0.12,-0.09,-0.36
-3.25,9.53,3.93, 0.89,-0.76,-0.80
-2.10,9.14,5.57, 0.23,0.28,-0.33
-3.93,6.59,3.45, -0.03,0.19,-0.21
-2.34,8.72,5.27, 0.24,0.16,-0.19
-3.18,6.47,3.53, -0.30,-0.04,-0.04
-3.91,9.79,3.87, -0.10,0.13,-0.26
-2.75,7.54,4.31, 0.16,0.14,-0.03
-4.27,6.41,3.55, -0.10,0.23,0.38
-5.20,9.16,3.26, 0.13,0.62,-0.17
-1.66,6.65,-1.34, 1.05,-1.18,-0.48
-1.29,7.61,2.64, 0.24,-0.56,-0.61
-1.24,7.92,3.28, 0.16,-0.16,-0.74
-1.65,7.24,2.95, -0.04,-0.25,-0.71
-4.53,8.27,2.58, -0.05,-0.29,-0.38
-2.09,8.15,4.14, 0.08,0.55,0.01
-3.52,7.98,5.28, -0.15,0.73,-0.18
-3.40,6.06,2.80, -0.40,0.05,-0.05
-2.38,7.60,3.39, -0.12,0.09,-0.17
-3.53,7.00,2.94, -0.36,-0.02,-0.02
-3.40,7.05,4.01, 0.01,0.03,0.01
0.00,9.01,2.51, -0.60,0.43,0.18
-2.32,8.93,5.09, 0.04,0.04,-0.02
-3.51,9.26,2.74, -0.45,-0.15,0.04
-3.04,8.65,3.28, -0.02,0.20,0.02
-5.06,5.74,3.06, -0.21,0.30,0.12
-3.17,8.24,3.72, -0.17,0.25,0.24
-2.62,6.13,1.78, -1.20,0.88,1.22
-2.89,9.63,2.62, 0.25,0.20,-0.30
-2.72,7.87,2.77, -0.29,0.44,0.04
-4.02,8.91,3.11, -0.21,-0.46,0.07
-3.78,7.13,3.54, -0.01,-0.03,-0.31
-2.80,6.80,3.80, 0.12,-0.19,-0.63
-3.52,7.17,4.60, -0.05,-0.01,-0.52
-2.60,7.33,4.39, 0.01,0.03,-0.59
-2.79,7.86,4.37, -0.09,0.18,-0.30
-2.98,8.41,2.92, -0.12,0.28,0.03
-1.84,8.22,5.11, -0.46,0.35,0.39
-3.28,6.49,3.22, 0.36,-0.58,-0.70
-3.41,6.00,3.79, 0.64,-0.92,-0.50
-2.91,7.42,3.20, 0.49,-0.90,-0.36
-2.73,6.82,3.52, 0.49,-0.64,-0.46
-3.66,8.56,4.04, 0.38,-1.08,-0.63
-3.05,7.25,3.51, -0.08,-0.41,-0.20
-3.56,7.44,2.94, 0.10,-0.11,-0.06
-2.91,8.51,3.12, 0.43,-0.36,-0.29
-2.65,8.49,2.91, 0.21,-0.22,-0.19
-1.68,8.72,4.04, -0.11,-0.36,-0.31
-1.82,9.01,3.91, -0.14,0.05,-0.11
-1.86,7.87,3.98, 0.14,0.17,0.11
-3.69,9.62,4.72, -0.19,0.21,-0.21
-0.57,6.64,1.59, 1.09,-1.11,-0.82
-2.93,7.06,2.55, 0.15,-0.38,-0.40
-2.98,8.97,3.52, 0.01,-0.42,-0.31
-3.71,6.19,4.74, 0.02,0.21,-0.10
-2.85,9.50,4.24, -0.17,0.26,-0.08
-1.62,8.89,4.70, 0.05,0.51,-0.05
-1.77,6.39,2.90, -0.28,0.59,-0.07
-2.20,9.78,3.31, -0.28,0.40,-0.06
-4.38,7.62,3.76, -0.29,0.64,0.15
-1.66,7.36,2.86, -0.11,-0.14,-0.10
-3.28,8.33,2.78, -0.13,-0.25,-0.20
-2.10,7.89,3.01, -0.31,0.67,-0.18
-2.50,9.94,5.29, -0.11,0.77,-0.09
-3.84,5.72,3.41, -0.34,-0.09,-0.01
-3.33,7.05,3.51, 0.08,0.11,0.07
-1.41,10.00,6.32, -0.07,0.78,-0.05
-3.55,8.15,3.71, -0.06,0.05,-0.20
-5.13,6.22,3.32, -0.45,0.36,0.58
-1.53,8.45,3.53, -0.01,-0.19,-0.01
-2.68,9.04,4.51, 0.03,-0.29,-0.28
-2.66,9.92,3.45, 0.62,-0.79,-0.66
-3.03,7.34,4.08, 0.03,-0.02,-0.10
-2.25,7.18,3.91, -0.01,0.00,-0.00
-2.70,8.88,4.79, -0.03,0.41,-0.12
-1.43,6.79,4.38, -0.37,-0.40,0.18
-3.97,10.29,4.39, -0.08,-0.41,0.05
-2.62,7.66,2.15, -0.21,-0.01,-0.28
-4.74,4.96,4.10, 0.16,-0.79,0.05
-0.36,6.57,4.58, -0.08,-0.20,-0.70
-3.56,8.63,3.68, 0.01,-0.48,0.08
-2.37,7.86,3.75, 0.06,-0.38,0.01
-3.42,9.65,4.19, 0.18,-0.32,-0.23
-3.12,8.81,3.36, 0.01,-0.09,0.22
-3.21,6.90,3.35, -0.08,0.13,0.37
-4.46,5.83,2.35, -0.86,1.20,-0.14
-4.86,7.29,4.50, -0.30,-0.09,0.06
-3.90,8.21,2.75, 0.20,-1.04,-0.17
-2.86,7.08,3.84, 0.35,-0.22,-0.32
-3.26,9.67,5.72, -0.10,0.49,0.04
-2.33,7.39,3.25, -0.14,0.01,0.07
-3.14,9.95,4.07, 0.06,-0.01,-0.28
-3.36,5.51,3.59, -0.42,-0.45,0.82
-3.07,9.11,3.52, 0.16,-0.54,-0.44
-2.39,12.66,3.20, 1.04,-0.60,-1.01
-3.43,6.85,3.59, -0.00,-0.12,0.06
-2.66,8.54,4.61, -0.04,0.10,0.08
-2.24,6.69,3.24, 0.39,-0.58,-0.58
-3.16,8.51,4.87, 0.20,-0.31,-0.50
-4.01,6.28,3.29, 0.32,-0.57,-0.08
-3.91,6.66,4.12, 0.24,0.03,-0.07
-3.89,8.56,5.26, 0.27,0.09,-0.19
-4.29,7.41,2.34, -0.06,-0.22,0.34
-1.47,7.99,2.87, -0.02,0.11,-0.15
-2.90,9.94,3.04, -0.17,-0.03,-0.21
-2.48,9.41,4.40, 0.08,-0.02,-0.10
-3.56,5.29,3.19, -0.17,0.01,0.06
-3.78,6.99,4.04, -0.03,0.14,0.07
-1.93,8.66,2.79, -0.40,0.83,0.33
-3.38,9.11,1.27, -0.71,0.90,0.43
-1.87,10.63,2.12, -0.20,1.39,0.29
-4.58,7.77,2.39, -0.40,-0.12,0.15
-3.44,9.50,3.15, -0.19,-0.35,0.13
-2.52,8.13,3.37, -0.01,-0.26,0.34
-3.08,7.18,4.32, -0.08,-0.07,0.16
-1.98,8.68,3.12, 0.03,-0.06,-0.03
-2.01,6.80,3.78, 0.09,0.03,-0.09
-3.26,8.51,3.75, 0.02,0.73,-0.21
-4.26,9.36,3.84, -0.03,0.72,-0.03
-2.53,9.27,2.37, -0.82,1.04,0.53
-3.67,7.76,2.77, -0.76,1.34,0.49
-4.49,7.14,5.03, -0.24,0.10,-0.01
-4.00,5.95,2.56, -0.78,0.60,0.65
-4.31,7.79,3.41, -0.75,0.46,0.76
-4.41,6.25,3.65, -0.79,0.34,0.77
-2.91,4.72,3.96, 0.08,-0.03,0.00
-2.87,9.55,2.29, -1.06,1.28,0.96
-2.16,7.05,2.17, -1.16,1.54,0.80
-2.39,7.57,1.79, -0.78,0.99,0.87
-3.55,7.26,3.93, 0.10,-0.54,-0.10
-1.53,8.70,2.11, 0.27,-1.05,-0.27
-3.67,7.10,3.15, -0.52,-0.96,0.38
-3.43,7.88,2.69, 0.12,-0.66,-0.21
-3.81,7.08,3.13, 0.42,-1.04,-0.52
-3.68,7.92,3.77, 0.38,-1.12,-0.47
-2.90,9.12,4.03, 0.48,-0.84,-0.72
-3.24,7.36,4.69, 0.43,-0.95,-0.93
-5.23,8.46,4.06, 0.05,-0.03,-0.06
-3.07,6.90,3.68, -0.19,0.10,0.29
-3.13,9.55,3.54, 0.07,0.33,0.09
-2.91,9.69,4.14, 0.21,0.46,0.03
-0.82,7.69,2.74, 0.54,-0.56,-0.79
-3.18,6.60,2.54, 0.74,-0.84,-0.61
-3.26,7.40,3.20, -0.32,-0.20,0.06
-2.00,7.70,2.69, -0.02,-0.04,-0.16
-2.26,6.52,3.38, 0.23,-0.31,-0.20
-1.64,8.39,3.95, 0.20,-0.42,-0.25
-2.20,8.78,2.64, 0.24,0.09,-0.25
-1.78,7.43,4.18, 0.03,0.39,0.02
-1.47,10.84,5.93, -0.14,0.54,-0.36
-2.63,5.37,3.03, 0.12,-0.30,-0.51
-4.84,6.64,3.55, -0.37,-0.48,0.03
-1.67,10.16,3.98, 0.17,0.26,-0.18
-3.82,7.31,3.12, -0.15,-0.01,0.42
-2.28,10.01,6.58, 0.00,0.32,-0.10
-3.44,7.40,3.64, -0.05,0.14,-0.09
-3.05,9.79,4.43, 0.09,0.06,-0.13
-2.14,11.11,5.86, -0.23,0.61,-0.03
-4.72,8.10,3.42, -0.13,-0.50,-0.06
0.24,11.72,4.25, 0.48,-0.04,-1.05
-4.44,6.43,2.37, -0.34,0.31,0.68
-1.35,5.04,2.66, 0.10,-0.34,-0.44
-2.60,10.24,4.26, 0.12,-0.09,-0.24
-2.20,7.54,4.03, 0.20,-0.14,-0.42
-2.23,8.17,3.98, 0.40,-0.51,-0.37
-2.45,11.40,5.49, 0.38,-0.80,-0.68
-2.66,9.68,2.28, 1.22,-0.75,-0.86
-4.11,6.38,3.64, -0.40,0.44,0.15
-1.99,13.40,3.21, 0.77,-0.11,0.05
-4.13,8.41,3.73, -0.34,0.02,-0.04
-3.00,8.13,3.15, -0.03,-0.26,-0.05
-3.56,7.37,1.27, -0.19,-0.55,-0.22
-3.02,10.51,3.81, -0.29,-0.59,-0.47
-4.49,8.89,4.82, 0.12,0.05,0.07
-4.47,9.22,3.16, -0.28,-0.00,0.32
-2.30,7.77,2.89, 0.22,-0.29,-0.19
-2.24,7.67,2.43, 0.16,-0.33,-0.32
-3.76,9.80,3.34, 0.19,-0.43,-0.42
-5.40,10.28,2.85, 0.83,-1.11,-0.54
-1.13,9.76,2.44, -0.01,-0.14,-0.21
-1.78,7.92,2.36, -0.12,0.25,0.07
-3.33,8.06,2.69, -0.34,0.17,0.29
-2.75,6.16,3.21, 0.20,-0.52,-0.25
-1.65,7.79,4.02, 0.16,-0.09,-0.52
-2.34,6.44,2.94, 0.07,-0.46,-0.51
-3.98,8.28,4.52, -0.07,0.12,-0.23
-4.24,8.36,4.02, -0.10,-0.44,-0.48
-2.24,11.23,5.70, 0.39,-0.21,-0.91
-4.46,5.18,2.25, -0.06,-0.29,0.29
-2.79,7.23,3.78, 0.16,-0.06,-0.06
-1.95,9.61,7.85, 0.18,0.30,-0.66
-2.53,8.31,3.13, 0.18,-0.27,-0.35
-3.86,9.10,2.89, 0.04,-0.25,-0.07
-3.45,6.34,2.79, -0.10,-0.20,-0.32
-4.48,7.59,3.78, -0.19,0.20,-0.16
-3.28,6.72,3.87, 0.05,0.06,-0.01
-2.77,9.14,6.29, -0.21,0.37,-0.02
-2.52,14.71,4.96, 1.11,-0.24,-0.45
-3.86,10.24,4.14, 0.22,0.11,-0.40
-2.96,6.93,4.15, 0.50,-0.23,-0.58
-3.58,10.01,6.21, 0.12,0.44,0.21
-1.80,7.47,3.29, 0.70,-0.25,-0.14
-1.21,6.40,3.22, 0.51,-1.13,-0.81
-3.45,10.05,3.20, -0.08,-0.07,-0.06
-3.44,12.32,5.13, 1.30,-1.14,-0.95
-2.97,6.76,3.59, -0.10,-0.10,-0.11
-3.36,10.52,4.13, 0.43,0.14,-0.75
-4.03,7.65,3.67, 0.06,-0.16,-0.26
-1.41,8.82,3.76, 0.30,0.12,-0.32
-4.15,7.56,3.69, -0.44,-0.00,0.56
0.52,6.77,1.02, 0.49,-0.82,-0.61
-3.25,6.89,3.56, -0.33,-0.36,-0.01
-4.00,12.50,4.65, 1.29,-1.26,-0.27
-0.50,9.09,3.71, 0.53,-0.62,-0.55
-3.46,7.35,3.16, 0.11,-0.16,-0.19
-2.84,8.70,4.11, 0.41,-0.39,-0.18
-3.23,9.07,3.64, 0.01,0.19,0.11
-1.18,6.78,2.79, 0.38,-0.83,-0.79
-3.67,7.34,2.66, 0.02,-0.71,-0.23
-2.51,9.69,2.76, 0.15,-0.46,-0.29
-4.96,4.81,3.33, -0.76,0.31,0.35
-2.65,9.39,3.05, -0.25,-0.23,0.05
0.31,10.76,3.19, 0.56,-0.14,-0.45
-2.37,5.80,3.26, 0.07,0.61,-0.14
-2.94,9.39,4.48, -0.14,0.73,0.27
-3.68,9.31,1.80, -0.68,1.03,0.39
-2.31,8.16,1.55, -0.30,1.00,0.03
-3.08,8.62,2.52, -0.30,0.94,0.08
-3.78,8.55,1.75, -0.71,0.71,0.22
-4.14,8.41,1.82, -0.72,0.51,0.14
-4.46,9.04,3.49, -0.92,0.39,0.04
-7.69,8.69,2.83, -0.78,0.80,0.17
-4.26,7.05,2.94, -0.35,0.39,0.34
-4.92,7.06,2.79, -0.28,0.59,0.17
-5.54,7.46,3.47, -0.55,0.51,0.34
-5.04,8.56,3.17, -0.39,0.32,0.29
-3.76,7.30,2.36, -0.17,0.16,0.28
-4.27,7.30,2.47, -0.12,0.22,0.16
-4.30,7.79,2.23, -0.00,0.16,0.05
-4.07,8.15,2.09, 0.08,0.19,0.08
-3.40,6.20,0.90, 0.24,1.42,-0.14
-4.01,8.50,-4.87, 1.39,-0.37,-0.28
-2.20,5.90,-8.78, 0.21,-0.17,-0.31
-0.67,5.66,-8.88, 0.28,-0.52,-0.06
0.74,6.44,-9.01, 0.16,-0.21,0.08
-2.00,6.92,-8.64, -0.19,0.34,0.14
-1.05,4.82,-8.86, -0.32,0.34,0.22
-1.17,4.63,-8.97, -0.17,0.10,0.11
-0.29,5.81,-8.91, -0.00,-0.07,-0.14
-1.68,5.03,-8.66, -0.16,0.50,-0.28
-0.91,4.71,-9.07, -0.11,-0.08,-0.13
0.04,5.54,-8.09, 0.47,-0.32,-1.14
-4.31,4.62,-9.82, 0.03,0.26,-2.04
-3.17,2.47,-10.14, -0.29,-0.01,-0.86
-3.47,1.39,-9.51, -0.33,0.18,-0.37
-2.40,2.43,-8.76, -0.03,-0.10,-0.33
-2.66,1.56,-10.38, -0.21,0.10,0.04
-3.21,1.30,-9.50, 0.13,0.20,-0.47
